timestamp,accel_x_m_s2,accel_y_m_s2,accel_z_m_s2,gyro_x_dps,gyro_y_dps,gyro_z_dps,fsr1_value,fsr2_value,fsr3_value
1739816973.605568,1.6046630859375002,-0.85502197265625,-9.417216796875001,-7.541984732824427,-2.366412213740458,-1.1755725190839694,6,784,6
1739816973.6186967,1.68369873046875,-0.83107177734375,-9.44356201171875,-7.587786259541985,-2.5343511450381677,-1.3053435114503817,6,784,6
1739816973.6344151,1.62142822265625,-0.833466796875,-9.48667236328125,-7.580152671755725,-2.3206106870229006,-1.465648854961832,6,784,6
1739816973.648345,1.6621435546875,-0.8454418945312501,-9.647138671875,-7.641221374045801,-2.2977099236641223,-1.381679389312977,6,784,6
1739816973.6629279,1.6262182617187502,-0.85981201171875,-9.3836865234375,-7.435114503816794,-2.5572519083969465,-1.2748091603053435,6,784,6
1739816973.6768448,1.62861328125,-0.8574169921875,-9.38608154296875,-7.534351145038168,-2.5343511450381677,-1.3358778625954197,6,784,6
1739816973.6910477,1.5950830078125,-0.8214916992187501,-9.63755859375,-7.564885496183206,-2.4885496183206106,-1.4427480916030535,6,798,6
1739816973.7042544,1.676513671875,-0.8095166015625,-9.4220068359375,-7.465648854961832,-2.49618320610687,-1.251908396946565,6,798,6
1739816973.7177556,1.6142431640625001,-0.85023193359375,-9.5178076171875,-7.580152671755725,-2.549618320610687,-1.1908396946564885,6,798,6
1739816973.7350378,1.61663818359375,-0.77359130859375,-9.47230224609375,-7.549618320610687,-2.633587786259542,-0.9236641221374046,6,798,6
1739816973.754991,1.6238232421875,-0.8622070312500001,-9.553732910156251,-7.251908396946565,-2.1603053435114505,-1.1374045801526718,6,798,6
1739816973.7688365,1.57352783203125,-0.87897216796875,-9.65432373046875,-5.129770992366412,-2.3206106870229006,-0.9007633587786259,6,798,6
1739816973.7823408,1.6094531250000002,-1.0394384765625,-9.22801025390625,-9.213740458015268,-1.916030534351145,-0.7938931297709924,6,798,6
1739816973.796012,1.561552734375,-0.89334228515625,-9.237590332031251,-4.022900763358779,-2.6946564885496183,-1.0458015267175573,6,802,6
1739816973.8096323,1.60226806640625,-0.8622070312500001,-9.4986474609375,-5.33587786259542,-2.5343511450381677,-1.297709923664122,6,802,6
1739816973.8229523,1.62861328125,-0.85502197265625,-9.398056640625,-8.236641221374045,-2.816793893129771,-1.1221374045801527,6,802,6
1739816973.8362448,1.5543676757812501,-0.8574169921875,-9.553732910156251,-7.473282442748092,-2.5572519083969465,-1.2900763358778626,6,802,6
1739816973.8500595,1.6262182617187502,-0.7999365234375,-9.57289306640625,-7.564885496183206,-2.519083969465649,-1.1603053435114503,6,802,6
1739816973.8645215,1.6717236328125,-0.83107177734375,-9.441166992187501,-7.427480916030534,-2.282442748091603,-1.3511450381679388,6,802,6
1739816973.8778048,1.6477734375000002,-0.8646020507812501,-9.6519287109375,-7.67175572519084,-2.351145038167939,-1.183206106870229,6,802,6
1739816973.8905463,1.5878979492187502,-0.85502197265625,-9.47230224609375,-7.595419847328245,-2.2977099236641223,-1.3893129770992367,6,802,6
1739816973.903266,1.6621435546875,-0.79275146484375,-9.656718750000001,-7.435114503816794,-2.549618320610687,-1.3740458015267176,6,822,7
1739816973.9159296,1.64058837890625,-0.9077124023437501,-9.36931640625,-7.526717557251908,-2.564885496183206,-1.297709923664122,6,822,7
1739816973.9288273,1.62142822265625,-0.79275146484375,-9.50583251953125,-7.595419847328245,-2.7404580152671754,-1.3740458015267176,6,822,7
1739816973.9416754,1.6908837890625001,-0.814306640625,-9.4651171875,-7.450381679389313,-2.572519083969466,-1.251908396946565,6,822,7
1739816973.954442,1.6693286132812502,-0.9029223632812501,-9.3549462890625,-7.648854961832061,-2.3053435114503817,-1.450381679389313,6,822,7
1739816973.96722,1.62861328125,-0.8071215820312501,-9.529782714843751,-7.625954198473282,-2.3206106870229006,-1.3282442748091603,6,822,7
1739816973.9799504,1.657353515625,-0.8406518554687501,-9.48427734375,-7.442748091603053,-2.3969465648854964,-1.3206106870229009,6,822,7
1739816973.9926145,1.6693286132812502,-0.8669970703125001,-9.3549462890625,-7.541984732824427,-2.6564885496183206,-1.2900763358778626,6,822,6
1739816974.0052698,1.6238232421875,-0.76880126953125,-9.378896484375,-7.648854961832061,-2.282442748091603,-1.4274809160305344,6,822,6
1739816974.0179465,1.791474609375,-0.8478369140625001,-9.477092285156251,-7.702290076335878,-2.450381679389313,-1.3129770992366412,6,822,6
1739816974.0339594,1.5759228515625001,-0.833466796875,-9.5657080078125,-7.587786259541985,-2.5114503816793894,-1.1068702290076335,6,822,6
1739816974.0467029,1.6046630859375002,-0.8478369140625001,-9.321416015625001,-7.595419847328245,-2.4122137404580153,-1.1374045801526718,6,822,6
1739816974.059548,1.65016845703125,-0.833466796875,-9.3645263671875,-7.648854961832061,-2.3435114503816794,-1.213740458015267,6,822,6
1739816974.0723135,1.5878979492187502,-0.85023193359375,-9.6183984375,-7.603053435114504,-2.648854961832061,-1.2366412213740459,6,822,6
1739816974.0852838,1.6310083007812501,-0.8430468750000001,-9.4651171875,-5.885496183206107,-2.5801526717557253,-1.1755725190839694,6,822,6
1739816974.0981333,1.8154248046875001,-0.8238867187500001,-9.522597656250001,-7.366412213740458,-2.633587786259542,-1.2290076335877862,6,824,7
1739816974.1107686,1.657353515625,-0.85023193359375,-9.48667236328125,-7.549618320610687,-2.5267175572519083,-1.2290076335877862,6,824,7
1739816974.1235888,1.69806884765625,-0.9029223632812501,-9.5178076171875,-7.465648854961832,-2.3969465648854964,-1.4580152671755726,6,824,7
1739816974.136657,1.6334033203125,-0.8071215820312501,-9.417216796875001,-7.450381679389313,-2.3969465648854964,-1.3053435114503817,6,824,7
1739816974.1497476,1.62861328125,-0.8262817382812501,-9.3932666015625,-7.595419847328245,-2.5343511450381677,-1.4580152671755726,6,824,7
1739816974.1665995,1.8273999023437502,-0.8669970703125001,-9.35255126953125,-7.519083969465649,-2.4122137404580153,-1.381679389312977,6,824,7
1739816974.1798964,1.6693286132812502,-0.871787109375,-9.3549462890625,-7.5038167938931295,-2.5114503816793894,-1.4045801526717556,6,824,7
1739816974.1927657,1.6429833984375002,-0.83586181640625,-9.613608398437501,-7.473282442748092,-2.633587786259542,-1.4274809160305344,6,824,7
1739816974.2076688,1.59747802734375,-0.8190966796875,-9.441166992187501,-7.603053435114504,-2.351145038167939,-1.2595419847328244,6,829,6
1739816974.2204103,1.6334033203125,-0.8646020507812501,-9.436376953125,-7.595419847328245,-2.5419847328244276,-1.0687022900763359,6,829,6
1739816974.2331614,1.580712890625,-0.8071215820312501,-9.46751220703125,-7.557251908396947,-2.4580152671755724,-1.1068702290076335,6,829,6
1739816974.2458963,1.6334033203125,-0.7999365234375,-9.36692138671875,-7.458015267175573,-2.4198473282442747,-1.2595419847328244,6,829,6
1739816974.258925,1.6334033203125,-0.890947265625,-9.357341308593751,-7.694656488549619,-2.6030534351145036,-1.3358778625954197,6,829,6
1739816974.272275,1.65974853515625,-0.8622070312500001,-9.4603271484375,-7.641221374045801,-2.519083969465649,-1.1374045801526718,6,829,6
1739816974.285185,1.6525634765625001,-0.8430468750000001,-9.455537109375001,-7.396946564885496,-2.4885496183206106,-1.3358778625954197,6,829,6
1739816974.2985113,1.657353515625,-0.86939208984375,-9.49625244140625,-7.702290076335878,-2.5877862595419847,-1.3435114503816794,6,818,6
1739816974.3124416,1.68369873046875,-0.83586181640625,-9.477092285156251,-7.511450381679389,-2.549618320610687,-1.2900763358778626,6,818,6
1739816974.3261924,1.5376025390625,-0.8262817382812501,-9.402846679687501,-7.687022900763359,-2.618320610687023,-1.1526717557251909,6,818,6
1739816974.338905,1.6310083007812501,-0.8430468750000001,-9.462722167968751,-7.4961832061068705,-2.4732824427480917,-1.2595419847328244,6,818,6
1739816974.3515403,1.619033203125,-0.8454418945312501,-9.47230224609375,-7.6183206106870225,-2.4656488549618323,-1.2748091603053435,6,818,6
1739816974.3642235,1.657353515625,-0.8478369140625001,-9.44356201171875,-7.67175572519084,-2.2977099236641223,-1.213740458015267,6,818,6
1739816974.3768873,1.67890869140625,-0.8454418945312501,-9.5034375,-7.603053435114504,-2.595419847328244,-1.366412213740458,6,818,6
1739816974.389543,1.7962646484375,-0.83107177734375,-9.45314208984375,-7.580152671755725,-2.5114503816793894,-1.0305343511450382,6,818,6
1739816974.4021983,1.62142822265625,-0.8095166015625,-9.448352050781251,-7.595419847328245,-2.3893129770992365,-1.1145038167938932,6,821,6
1739816974.414852,1.6477734375000002,-0.814306640625,-9.42440185546875,-6.061068702290076,-0.7709923664122137,-3.2061068702290076,6,821,6
1739816974.4275026,1.47533203125,-1.1304492187500002,-9.2112451171875,-9.442748091603054,-3.122137404580153,-0.2824427480916031,6,821,6
1739816974.4401517,1.6693286132812502,-0.8023315429687501,-9.53936279296875,-7.412213740458015,-2.5114503816793894,-0.9312977099236641,6,821,6
1739816974.4528103,1.65495849609375,-0.8286767578125,-9.448352050781251,-7.526717557251908,-2.2748091603053435,-1.5801526717557253,6,821,6
1739816974.4654744,1.79865966796875,-0.85023193359375,-9.410031738281251,-7.572519083969466,-2.2061068702290076,-1.0534351145038168,6,821,6
1739816974.478135,1.6525634765625001,-0.871787109375,-9.37171142578125,-7.511450381679389,-2.366412213740458,-1.2213740458015268,6,821,6
1739816974.490786,1.676513671875,-0.8574169921875,-9.55852294921875,-7.740458015267175,-2.2900763358778624,-1.2595419847328244,6,821,6
1739816974.503437,1.6621435546875,-0.833466796875,-9.455537109375001,-7.4961832061068705,-2.480916030534351,-1.2442748091603053,6,819,6
1739816974.5160885,1.64058837890625,-0.8071215820312501,-9.462722167968751,-7.511450381679389,-2.5343511450381677,-1.381679389312977,6,819,6
1739816974.5287416,1.67890869140625,-0.8095166015625,-9.441166992187501,-7.648854961832061,-2.49618320610687,-1.1755725190839694,6,819,6
1739816974.5413992,1.6693286132812502,-0.8574169921875,-9.36213134765625,-7.603053435114504,-2.2900763358778624,-1.3511450381679388,6,819,6
1739816974.5540516,1.68369873046875,-0.83586181640625,-9.474697265625,-7.519083969465649,-2.2519083969465647,-1.2595419847328244,6,819,6
1739816974.566728,1.64537841796875,-0.8957373046875,-9.4890673828125,-7.458015267175573,-2.4427480916030535,-1.2366412213740459,6,819,6
1739816974.579382,1.6525634765625001,-0.83586181640625,-9.513017578125,-7.526717557251908,-2.4427480916030535,-1.2442748091603053,6,819,6
1739816974.5920322,1.6046630859375002,-0.814306640625,-9.620793457031251,-7.580152671755725,-2.595419847328244,-1.1603053435114503,6,819,6
1739816974.604722,1.6334033203125,-0.8622070312500001,-9.6183984375,-7.656488549618321,-2.435114503816794,-1.282442748091603,6,815,6
1739816974.6173966,1.64058837890625,-0.8837622070312501,-9.41961181640625,-7.595419847328245,-2.3969465648854964,-1.297709923664122,6,815,6
1739816974.6300588,1.6429833984375002,-0.85502197265625,-9.4124267578125,-7.526717557251908,-2.50381679389313,-1.2061068702290076,6,815,6
1739816974.6427095,1.62142822265625,-0.8430468750000001,-9.44356201171875,-7.519083969465649,-2.687022900763359,-1.2595419847328244,6,815,6
1739816974.655366,1.61184814453125,-0.833466796875,-9.49146240234375,-7.427480916030534,-2.3740458015267176,-1.3893129770992367,6,815,6
1739816974.6680274,1.62861328125,-0.8190966796875,-9.388476562500001,-7.6106870229007635,-2.480916030534351,-1.2442748091603053,6,815,6
1739816974.680705,1.65016845703125,-0.852626953125,-9.3645263671875,-7.450381679389313,-2.4427480916030535,-1.3129770992366412,6,815,6
1739816974.693936,1.6046630859375002,-0.8382568359375,-9.374106445312501,-7.595419847328245,-2.5267175572519083,-1.3740458015267176,6,815,6
1739816974.7068403,1.6094531250000002,-0.6442602539062501,-9.65432373046875,-7.557251908396947,-2.6946564885496183,-1.3053435114503817,6,814,6
1739816974.719498,1.6525634765625001,-0.8190966796875,-9.37171142578125,-7.435114503816794,-2.549618320610687,-1.251908396946565,6,814,6
1739816974.7321503,1.65974853515625,-0.8574169921875,-9.647138671875,-7.465648854961832,-2.4732824427480917,-1.3969465648854962,6,814,6
1739816974.7459955,1.68369873046875,-0.8023315429687501,-9.508227539062501,-7.488549618320611,-2.5419847328244276,-1.2290076335877862,6,814,6
1739816974.7589924,1.6094531250000002,-0.8454418945312501,-9.4603271484375,-7.656488549618321,-2.3435114503816794,-1.1450381679389312,6,814,6
1739816974.7716908,1.6142431640625001,-0.814306640625,-9.44595703125,-7.511450381679389,-2.5572519083969465,-1.4198473282442747,6,814,6
1739816974.784317,1.69806884765625,-0.8047265625000001,-9.36692138671875,-7.473282442748092,-2.49618320610687,-1.213740458015267,6,814,6
1739816974.7989345,1.65016845703125,-0.8023315429687501,-9.45793212890625,-7.488549618320611,-2.435114503816794,-1.1984732824427482,6,812,6
1739816974.8115952,1.66693359375,-0.775986328125,-9.37650146484375,-7.465648854961832,-2.381679389312977,-1.3282442748091603,6,812,6
1739816974.8242466,1.5878979492187502,-0.8430468750000001,-9.52020263671875,-7.435114503816794,-2.2748091603053435,-0.916030534351145,6,812,6
1739816974.8369164,1.6429833984375002,-0.85023193359375,-9.36213134765625,-7.603053435114504,-2.427480916030534,-1.213740458015267,6,812,6
1739816974.8495672,1.6741186523437501,-0.7999365234375,-9.44356201171875,-7.519083969465649,-2.4885496183206106,-1.16793893129771,6,812,6
1739816974.8623216,1.62142822265625,-0.871787109375,-9.469907226562501,-6.152671755725191,-1.4122137404580153,1.7251908396946565,6,812,6
1739816974.874978,1.65495849609375,-0.86939208984375,-9.42440185546875,-7.755725190839694,0.48091603053435117,-7.656488549618321,6,812,6
1739816974.887626,1.47533203125,-0.79754150390625,-9.66869384765625,-6.038167938931298,-2.435114503816794,-7.3893129770992365,6,812,6
1739816974.9003482,1.7339941406250001,-0.69216064453125,-9.462722167968751,-7.778625954198473,-3.8702290076335877,-6.038167938931298,6,809,6
1739816974.9130034,1.56873779296875,-1.08494384765625,-9.58726318359375,-9.404580152671755,-1.9770992366412214,-17.3206106870229,6,809,6
1739816974.9256492,1.7507592773437501,-2.059716796875,-10.815908203125,-5.709923664122138,-7.366412213740458,-24.564885496183205,6,809,6
1739816974.9383595,1.77470947265625,-0.62031005859375,-8.902287597656251,-5.572519083969466,-0.8473282442748091,-24.625954198473284,6,809,6
1739816974.9510496,1.6860937500000002,-1.8154248046875001,-9.821975097656251,-11.290076335877863,-1.9083969465648856,-37.56488549618321,6,809,6
1739816974.9636989,1.28133544921875,-1.0921289062500001,-9.55852294921875,-5.351145038167939,-5.511450381679389,-38.97709923664122,6,809,6
1739816974.9763763,2.55069580078125,-0.5843847656250001,-8.602910156250001,-3.3587786259541983,-0.6946564885496184,-39.7557251908397,6,809,6
1739816974.989024,1.53041748046875,-2.38783447265625,-10.72250244140625,-6.458015267175573,14.969465648854962,-46.412213740458014,6,809,6
1739816975.001711,1.95673095703125,-2.7638525390625,-9.81,-4.557251908396947,-13.488549618320612,-69.86259541984732,6,806,6
1739816975.0143554,2.24892333984375,0.42152343750000004,-10.473420410156251,-1.6717557251908397,-5.816793893129771,-48.69465648854962,6,806,6
1739816975.0270045,1.6334033203125,0.39517822265625,-9.18489990234375,-3.5343511450381677,-2.0381679389312977,-31.519083969465647,6,806,6
1739816975.0396993,1.3483959960937502,0.9053173828125001,-7.9849951171875,-6.206106870229007,-4.038167938931298,-20.15267175572519,6,806,6
1739816975.0523422,1.7459692382812502,0.3065625,-9.649533691406251,-6.801526717557252,-1.5954198473282444,-3.183206106870229,6,806,6
1739816975.06507,1.55197265625,-0.83586181640625,-9.462722167968751,-7.282442748091603,-2.015267175572519,-0.8320610687022901,6,806,6
1739816975.0777166,1.714833984375,-0.8238867187500001,-9.49625244140625,-7.603053435114504,-1.9312977099236641,-0.7938931297709924,6,806,6
1739816975.0904093,1.59029296875,-0.8837622070312501,-9.433981933593751,-7.526717557251908,-1.9083969465648856,-0.9236641221374046,6,806,6
1739816975.1031396,1.7483642578125,-0.8478369140625001,-9.38608154296875,-7.648854961832061,0.22900763358778625,0.48091603053435117,6,796,6
1739816975.115793,1.6525634765625001,-0.871787109375,-9.302255859375,-7.694656488549619,-0.8549618320610687,-0.46564885496183206,6,796,6
1739816975.1284723,2.2704785156250002,0.1149609375,-19.540964355468752,248.50381679389312,-12.259541984732824,24.732824427480917,6,796,6
1739816975.1412106,3.34105224609375,-2.4237597656250003,-9.94412109375,82.12977099236642,17.236641221374047,50.091603053435115,6,796,6
1739816975.1539354,2.232158203125,-3.5613940429687503,-8.954978027343751,68.06870229007633,13.458015267175572,28.0381679389313,6,796,6
1739816975.166763,1.51365234375,-1.3100756835937502,-9.6231884765625,63.10687022900763,6.259541984732825,20.366412213740457,6,796,6
1739816975.179497,0.9436376953125001,0.20357666015625,-9.9680712890625,87.89312977099236,19.83969465648855,49.83206106870229,6,796,6
1739816975.1921585,-0.3975732421875,-0.28740234375,-10.499765625,169.08396946564886,27.625954198473284,35.51145038167939,6,796,6
1739816975.204861,0.9651928710937501,-3.171005859375,-9.72617431640625,215.14503816793894,28.786259541984734,11.694656488549619,6,788,6
1739816975.217522,1.4609619140625,-3.70988525390625,-8.80169677734375,213.5648854961832,28.412213740458014,24.64885496183206,6,788,6
1739816975.2302244,2.9027636718750003,-4.50024169921875,-7.7742333984375005,184.3740458015267,15.49618320610687,24.908396946564885,6,788,6
1739816975.2428746,3.55660400390625,-3.7937109375,-7.67124755859375,166.94656488549617,3.984732824427481,16.34351145038168,6,788,6
1739816975.2556424,3.25962158203125,-4.7565087890625,-7.69998779296875,158.1145038167939,14.80916030534351,26.885496183206108,6,788,6
1739816975.2684681,2.27287353515625,-5.03193603515625,-8.744216308593751,230.63358778625954,23.0,22.519083969465647,6,788,6
1739816975.2811353,1.3939013671875,-5.34807861328125,-7.941884765625001,222.08396946564886,24.748091603053435,33.87022900763359,6,788,6
1739816975.2937956,1.5088623046875,-5.815107421875,-7.51078125,205.06106870229007,15.755725190839694,44.82442748091603,6,788,6
1739816975.306487,0.6466552734375001,-7.24493408203125,-8.444838867187501,250.12977099236642,24.893129770992367,63.61832061068702,6,785,6
1739816975.3191495,-0.0143701171875,-5.278623046875,-8.564589843750001,250.12977099236642,14.49618320610687,39.49618320610687,6,785,6
1739816975.333385,3.5877392578125002,-10.1021923828125,-7.874824218750001,142.35114503816794,44.06870229007634,-0.7175572519083969,6,785,6
1739816975.3473606,4.45234130859375,-6.591093750000001,-6.294111328125,106.74809160305344,21.595419847328245,-10.091603053435115,6,785,6
1739816975.3620174,3.56618408203125,-6.86652099609375,-7.5922119140625,130.00763358778627,25.374045801526716,-6.251908396946565,6,785,6
1739816975.3755543,2.6632617187500003,-7.762258300781251,-8.5789599609375,250.12977099236642,23.984732824427482,12.19083969465649,6,785,6
1739816975.3882823,2.7231372070312503,-7.25451416015625,-4.8331494140625,250.12977099236642,17.916030534351144,6.580152671755725,6,785,6
1739816975.4009688,2.16509765625,-8.35143310546875,-3.8703515625000002,229.64885496183206,24.0,-1.7709923664122138,6,778,6
1739816975.4135947,2.23934326171875,-8.26042236328125,-4.40923095703125,145.42748091603053,22.633587786259543,-2.0763358778625953,6,778,6
1739816975.426214,2.30161376953125,-8.00655029296875,-4.31103515625,103.1526717557252,19.068702290076335,-4.374045801526718,6,778,6
1739816975.4388394,2.0812719726562503,-9.302255859375,-4.473896484375,120.21374045801527,20.404580152671755,-1.9389312977099236,6,778,6
1739816975.451461,2.48842529296875,-8.715476074218751,-4.62957275390625,191.00763358778627,27.641221374045802,18.412213740458014,6,778,6
1739816975.464161,2.41657470703125,-8.440048828125,-5.9156982421875,231.45038167938932,20.091603053435115,15.061068702290076,6,778,6
1739816975.4767864,2.36867431640625,-9.206455078125,-2.6033862304687503,241.8091603053435,-2.7022900763358777,4.519083969465649,6,778,6
1739816975.4894104,1.619033203125,-9.6231884765625,-1.3939013671875,184.0,6.6183206106870225,5.648854961832061,6,778,6
1739816975.5020332,2.40220458984375,-9.0675439453125,-2.76145751953125,153.9618320610687,4.114503816793893,9.687022900763358,6,770,6
1739816975.5146513,2.77582763671875,-8.744216308593751,-2.5099804687500002,196.58778625954199,1.1526717557251909,9.213740458015268,6,770,6
1739816975.5273192,2.43094482421875,-9.36931640625,-1.62142822265625,184.93893129770993,4.0534351145038165,10.679389312977099,6,770,6
1739816975.5399995,2.17228271484375,-9.508227539062501,-0.6658154296875001,159.4198473282443,3.7251908396946565,11.442748091603054,6,770,6
1739816975.5526283,2.1890478515625,-9.201665039062501,-0.48379394531250003,198.76335877862596,-7.206106870229007,14.213740458015268,6,770,6
1739816975.5652575,2.2561083984375,-10.212363281250001,-0.3592529296875,184.29770992366412,-6.320610687022901,18.99236641221374,6,770,6
1739816975.5778756,1.92320068359375,-9.462722167968751,1.64058837890625,185.87022900763358,-23.572519083969464,21.198473282442748,6,770,6
1739816975.5905223,1.4705419921875,-9.56331298828125,1.64058837890625,185.7709923664122,-26.908396946564885,25.022900763358777,6,770,6
1739816975.6031442,1.427431640625,-9.649533691406251,1.4561718750000001,148.26717557251908,-13.48091603053435,20.16793893129771,6,766,6
1739816975.615764,2.174677734375,-9.254355468750001,2.26808349609375,94.33587786259542,-7.183206106870229,18.65648854961832,6,766,6
1739816975.6283846,1.9208056640625002,-9.53936279296875,1.504072265625,51.29770992366412,-8.732824427480915,16.374045801526716,6,766,6
1739816975.6410062,2.7734326171875003,-9.15136962890625,2.01181640625,35.19847328244275,-2.8625954198473282,17.885496183206108,6,766,6
1739816975.6536267,2.3806494140625003,-10.4614453125,1.4298266601562502,61.587786259541986,-4.66412213740458,24.427480916030536,6,766,6
1739816975.6663182,1.8992504882812502,-9.580078125,3.0033544921875,84.55725190839695,-13.946564885496183,23.610687022900763,6,766,6
1739816975.6789432,1.5831079101562502,-9.889035644531251,3.3482373046875002,90.26717557251908,-32.404580152671755,29.374045801526716,6,766,6
1739816975.691683,0.5316943359375,-10.001601562500001,3.0512548828125,115.70992366412214,-32.05343511450382,32.68702290076336,6,766,6
1739816975.707096,1.09452392578125,-9.75012451171875,2.28005859375,97.8854961832061,-26.557251908396946,35.25954198473283,6,763,6
1739816975.7199044,1.67890869140625,-9.793234863281251,2.17228271484375,57.282442748091604,-11.870229007633588,17.80916030534351,6,763,6
1739816975.732796,2.90515869140625,-8.669970703125001,3.5589990234375,24.061068702290076,-7.183206106870229,15.580152671755725,6,763,6
1739816975.7457042,2.93389892578125,-8.65799560546875,4.4978466796875,26.34351145038168,-0.16793893129770993,23.16030534351145,6,763,6
1739816975.7584085,2.22976318359375,-9.9584912109375,3.094365234375,65.96946564885496,-2.6106870229007635,26.198473282442748,6,763,6
1739816975.7711046,1.08973388671875,-10.0351318359375,2.8021728515625,76.08396946564885,-14.725190839694656,19.51145038167939,6,763,6
1739816975.7838037,0.6634204101562501,-9.63037353515625,3.58055419921875,50.954198473282446,-19.3206106870229,8.67175572519084,6,763,6
1739816975.7969468,1.350791015625,-9.103469238281251,3.6404296875,25.84732824427481,-13.732824427480915,7.358778625954199,6,763,6
1739816975.8097405,1.5376025390625,-9.59205322265625,3.496728515625,9.702290076335878,0.5877862595419847,-2.0610687022900764,5,759,6
1739816975.823032,1.6741186523437501,-9.627978515625001,3.49433349609375,-10.770992366412214,15.267175572519085,-7.908396946564886,5,759,6
1739816975.8374126,1.61663818359375,-9.17531982421875,3.7601806640625,-32.45038167938932,8.19083969465649,-9.83206106870229,5,759,6
1739816975.8502645,1.9902612304687501,-8.715476074218751,4.31103515625,-48.51145038167939,14.419847328244275,-16.27480916030534,5,759,6
1739816975.8632143,1.7100439453125,-9.4124267578125,4.071533203125,-46.61832061068702,10.625954198473282,-14.923664122137405,5,759,6
1739816975.8758829,1.5567626953125,-9.58726318359375,3.6476147460937502,-53.74809160305343,8.442748091603054,-18.984732824427482,5,759,6
1739816975.8885348,1.49688720703125,-9.2495654296875,3.73383544921875,-69.03053435114504,9.251908396946565,-18.12213740458015,5,759,6
1739816975.9011855,0.9915380859375,-9.21843017578125,3.822451171875,-91.20610687022901,13.083969465648854,-19.16793893129771,6,737,6
1739816975.9138343,0.9675878906250001,-9.60642333984375,3.2907568359375,-111.19083969465649,17.099236641221374,-17.12213740458015,6,737,6
1739816975.9265077,1.4513818359375001,-9.49625244140625,3.35302734375,-145.78625954198472,20.763358778625953,-18.83969465648855,6,737,6
1739816975.939245,1.6262182617187502,-9.216035156250001,3.2045361328125,-187.76335877862596,24.81679389312977,-18.396946564885496,6,737,6
1739816975.9522464,1.85853515625,-8.16941162109375,2.43094482421875,-250.13740458015266,22.18320610687023,-20.885496183206108,6,737,6
1739816975.965021,2.8021728515625,-8.684340820312501,2.1986279296875,-250.13740458015266,42.93893129770992,-24.549618320610687,6,737,6
1739816975.9776607,2.1243823242187503,-9.66869384765625,2.01181640625,-250.13740458015266,20.358778625954198,-22.328244274809162,6,737,6
1739816975.990284,1.6741186523437501,-9.84113525390625,1.0921289062500001,-250.13740458015266,-18.709923664122137,-15.938931297709924,6,737,6
1739816975.9995043,-0.17962646484375,-8.114326171875,3.017724609375,-250.13740458015266,-72.13740458015268,-11.442748091603054,6,737,6
1739816976.0087042,-3.9278320312500004,13.2444580078125,-3.1662158203125004,-250.13740458015266,-166.10687022900763,-18.14503816793893,4,534,4
1739816976.0178766,4.2296044921875,-18.326689453125002,-2.81414794921875,-250.13740458015266,-73.6412213740458,-39.35114503816794,4,534,4
1739816976.027048,3.4344580078125,-7.436535644531251,-5.460644531250001,-250.13740458015266,-28.198473282442748,-35.52671755725191,4,534,4
1739816976.0362182,2.5674609375,-7.40779541015625,-7.194638671875,-250.13740458015266,-16.16030534351145,-36.908396946564885,4,534,4
1739816976.045562,2.1603076171875,-7.563471679687501,-6.58869873046875,-250.13740458015266,-26.595419847328245,-37.13740458015267,4,534,4
1739816976.0577626,0.85502197265625,-9.359736328125,-7.692802734375,-237.4885496183206,-0.6335877862595419,-28.9618320610687,4,534,4
1739816976.0704222,1.561552734375,-6.8761010742187505,-8.437653808593751,-53.19847328244275,0.1297709923664122,-2.030534351145038,4,534,4
1739816976.0831254,1.96152099609375,-6.447392578125,-5.53728515625,-124.41984732824427,5.862595419847328,-7.091603053435114,4,534,4
1739816976.095752,1.6741186523437501,-7.30720458984375,-6.38033203125,-107.8854961832061,2.1526717557251906,-7.251908396946565,4,534,4
1739816976.1084049,1.70525390625,-8.13588134765625,-6.514453125,-85.79389312977099,1.0381679389312977,-6.083969465648855,2,377,2
1739816976.1210344,1.6334033203125,-8.440048828125,-6.392307128906251,-77.86259541984732,-4.33587786259542,-12.80916030534351,2,377,2
1739816976.1337035,1.9136206054687501,-6.5863037109375,-7.1754785156250005,-108.00763358778626,1.015267175572519,-7.572519083969466,2,377,2
1739816976.1464489,1.71722900390625,-7.75267822265625,-7.3527099609375,-56.67175572519084,-1.3282442748091603,-6.816793893129771,2,377,2
1739816976.157884,2.1339624023437502,-5.623505859375,-7.1491333007812505,-71.83969465648855,-0.9083969465648855,-2.3740458015267176,2,377,2
1739816976.1693845,1.9255957031250002,-6.4569726562500005,-7.137158203125001,-69.50381679389314,-2.83206106870229,-5.206106870229007,2,377,2
1739816976.180782,1.7507592773437501,-6.258186035156251,-6.770720214843751,-60.19847328244275,-4.923664122137405,-8.687022900763358,2,377,2
1739816976.1920094,1.8776953125,-6.16717529296875,-7.9370947265625,-76.46564885496183,1.7328244274809161,1.900763358778626,2,377,2
1739816976.203253,2.0645068359375003,-3.4847534179687503,-8.24126220703125,-145.0,9.17557251908397,5.374045801526718,1,263,1
1739816976.2144678,1.8250048828125,-6.0977197265625005,-7.252119140625,-139.72519083969465,1.8931297709923665,0.5114503816793893,1,263,1
1739816976.2256784,1.8273999023437502,-4.99840576171875,-7.941884765625001,-126.70229007633588,-1.717557251908397,1.2061068702290076,1,263,1
1739816976.2370849,1.85853515625,-5.3217333984375,-7.788603515625001,-121.09160305343511,-6.152671755725191,-6.297709923664122,1,263,1
1739816976.248318,1.7124389648437501,-8.48076416015625,-6.883286132812501,-95.3206106870229,-8.82442748091603,-11.16793893129771,1,263,1
1739816976.2595825,1.7771044921875,-4.84512451171875,-7.7454931640625,-122.37404580152672,-11.32824427480916,-16.18320610687023,1,263,1
1739816976.2707992,1.7675244140625002,-1.34360595703125,-9.13699951171875,-161.9618320610687,-11.068702290076336,-12.80916030534351,1,263,1
1739816976.2820027,1.9543359375,-5.36484375,-7.776628417968751,-153.9236641221374,-10.709923664122137,-18.091603053435115,1,263,1
1739816976.2932131,1.7675244140625002,-4.9433203125,-7.8939843750000005,-158.19847328244273,-18.931297709923665,-26.076335877862597,1,263,1
1739816976.3044224,1.6094531250000002,-4.948110351562501,-8.497529296875001,-160.16030534351145,-10.404580152671755,-49.47328244274809,0,32,0
1739816976.3156304,0.03592529296875,-3.06322998046875,-8.969348144531251,-140.6793893129771,-40.62595419847328,-25.396946564885496,0,32,0
1739816976.3268378,2.36867431640625,-3.9877075195312504,-8.1670166015625,-166.6793893129771,-29.885496183206108,-34.847328244274806,0,32,0
1739816976.3380735,2.4836352539062503,-3.0919702148437502,-9.01245849609375,-175.6259541984733,-31.17557251908397,-9.969465648854962,0,32,0
1739816976.3495185,3.25004150390625,-2.52195556640625,-7.575446777343751,-114.52671755725191,-15.15267175572519,5.862595419847328,0,32,0
1739816976.3621674,1.13763427734375,-2.50279541015625,-10.6290966796875,-42.61068702290076,-17.82442748091603,0.6106870229007634,0,32,0
1739816976.3747842,1.53520751953125,-2.46447509765625,-9.27112060546875,-87.90076335877863,-10.305343511450381,8.587786259541986,0,32,0
1739816976.3874018,1.8489550781250002,-1.427431640625,-9.441166992187501,-109.61832061068702,-1.6412213740458015,14.358778625954198,0,32,0
1739816976.4000165,2.0836669921875,-1.8345849609375,-9.074729003906251,-126.78625954198473,1.3129770992366412,12.557251908396946,0,32,0
1739816976.4126315,1.76512939453125,-3.1518457031250002,-9.39087158203125,-118.18320610687023,1.7633587786259541,0.7633587786259542,0,0,0
1739816976.4252496,1.46335693359375,-2.83809814453125,-9.43877197265625,-98.3206106870229,-2.4580152671755724,-0.46564885496183206,0,0,0
1739816976.4378617,1.657353515625,-2.42136474609375,-9.1729248046875,-103.23664122137404,19.259541984732824,2.198473282442748,0,0,0
1739816976.4504917,1.43940673828125,-2.60817626953125,-9.3118359375,-84.22900763358778,1.83206106870229,-0.6793893129770993,0,0,0
1739816976.4631898,1.3555810546875,-1.8609301757812502,-9.793234863281251,-60.030534351145036,0.31297709923664124,-2.5343511450381677,0,0,0
1739816976.4758282,1.6645385742187502,-1.39869140625,-9.740544433593751,-34.74809160305343,-0.2595419847328244,-1.5419847328244274,0,0,0
1739816976.4884474,1.6094531250000002,-1.4226416015625,-9.754914550781251,-16.33587786259542,0.3969465648854962,-1.7786259541984732,0,0,0
1739816976.5011148,1.76033935546875,-1.19990478515625,-9.635163574218751,-5.4961832061068705,2.068702290076336,0.183206106870229,0,0,0
1739816976.5137475,1.5567626953125,-1.11847412109375,-9.350156250000001,-5.641221374045801,-0.22137404580152673,1.4427480916030535,0,0,0
1739816976.5263681,1.83697998046875,-1.101708984375,-9.254355468750001,-10.351145038167939,-0.48091603053435117,0.8244274809160306,0,0,0
1739816976.5390806,1.6956738281250001,-1.30049560546875,-9.29507080078125,-16.671755725190838,-1.7633587786259541,-0.7557251908396947,0,0,0
1739816976.55216,1.676513671875,-1.4130615234375001,-9.42440185546875,-14.450381679389313,-2.1603053435114505,-1.3206106870229009,0,0,0
1739816976.563804,1.5376025390625,-1.24541015625,-9.45793212890625,-12.49618320610687,-1.7709923664122138,-1.0534351145038168,0,0,0
1739816976.5750687,1.7507592773437501,-1.35797607421875,-9.44356201171875,-11.381679389312977,-1.7557251908396947,-1.6030534351145038,0,0,0
1739816976.5863824,1.71722900390625,-1.1639794921875,-9.51062255859375,-11.893129770992367,-2.0763358778625953,-1.5114503816793894,0,0,0
1739816976.597625,1.72680908203125,-1.2214599609375,-9.536967773437501,-11.358778625954198,-2.145038167938931,-1.6717557251908397,0,0,0
1739816976.608869,1.70525390625,-1.19990478515625,-9.378896484375,-9.381679389312977,-2.198473282442748,-1.3435114503816794,0,0,0
1739816976.620099,1.7124389648437501,-1.09452392578125,-9.42919189453125,-7.259541984732825,-2.2595419847328246,-1.534351145038168,0,0,0
1739816976.6313426,1.7004638671875,-1.2070898437500002,-9.38608154296875,-5.351145038167939,-3.877862595419847,-1.2290076335877862,0,0,0
1739816976.6425886,1.76512939453125,-1.16637451171875,-9.374106445312501,-2.4885496183206106,-1.4885496183206106,-0.8091603053435115,0,0,0
1739816976.6538663,1.6860937500000002,-1.18074462890625,-9.42440185546875,1.16793893129771,-0.916030534351145,-0.42748091603053434,0,0,0
1739816976.6651437,1.6908837890625001,-1.22385498046875,-9.501042480468751,1.5267175572519085,-0.9465648854961832,-0.37404580152671757,0,0,0
1739816976.6763892,1.55197265625,-1.2669653320312502,-9.474697265625,1.9465648854961832,-1.465648854961832,-0.7251908396946565,0,0,0
1739816976.6876247,1.7962646484375,-1.14242431640625,-9.45314208984375,2.9236641221374047,-1.297709923664122,-1.0381679389312977,0,0,0
1739816976.6988714,1.6908837890625001,-1.29091552734375,-9.433981933593751,2.969465648854962,-1.1984732824427482,-0.6717557251908397,0,0,0
1739816976.7101278,1.68848876953125,-1.29091552734375,-9.35255126953125,1.984732824427481,-0.8320610687022901,-0.5038167938931297,0,0,0
1739816976.7213738,1.72680908203125,-1.32444580078125,-9.2399853515625,1.015267175572519,-1.099236641221374,-0.4580152671755725,0,0,0
1739816976.7326329,1.7411791992187502,-1.3555810546875,-9.433981933593751,0.48854961832061067,-1.4122137404580153,-0.9694656488549618,0,0,0
1739816976.7438827,1.7675244140625002,-1.389111328125,-9.441166992187501,1.0610687022900764,-1.1297709923664123,-0.6030534351145038,0,0,0
1739816976.7556474,1.73638916015625,-1.3412109375,-9.3549462890625,4.404580152671755,-0.9083969465648855,0.07633587786259542,0,0,0
1739816976.768297,1.7890795898437502,-1.52083740234375,-9.60642333984375,8.290076335877863,1.8091603053435115,1.0763358778625953,0,0,0
1739816976.7809482,1.7124389648437501,-1.3843212890625,-9.47230224609375,17.442748091603054,1.1603053435114503,2.351145038167939,0,0,0
1739816976.7935958,1.80823974609375,-1.52562744140625,-9.35255126953125,24.763358778625953,0.06870229007633588,3.122137404580153,0,0,0
1739816976.8062654,1.68848876953125,-1.66693359375,-9.426796875,31.221374045801525,1.3206106870229009,2.267175572519084,0,0,0
1739816976.818912,1.5926879882812501,-1.6334033203125,-9.26633056640625,21.450381679389313,1.5114503816793894,2.6946564885496183,0,0,0
1739816976.8315594,1.7675244140625002,-1.5567626953125,-9.4315869140625,19.85496183206107,0.21374045801526717,3.618320610687023,0,0,0
1739816976.8442066,1.70525390625,-1.56873779296875,-9.4651171875,30.46564885496183,0.9770992366412213,1.5267175572519085,0,0,0
1739816976.8569558,1.7459692382812502,-1.9639160156250002,-9.0196435546875,-0.17557251908396945,-1.3129770992366412,-0.48091603053435117,0,0,0
1739816976.8701992,1.80344970703125,-1.8441650390625002,-9.410031738281251,0.1450381679389313,-0.8396946564885496,0.4961832061068702,0,0,0
1739816976.8841753,1.76512939453125,-1.85853515625,-9.374106445312501,10.641221374045802,0.06870229007633588,1.4045801526717556,0,0,0
1739816976.899342,1.829794921875,-1.97589111328125,-9.647138671875,21.64885496183206,2.954198473282443,2.045801526717557,0,0,0
1739816976.9120135,1.77470947265625,-2.078876953125,-8.8855224609375,16.916030534351144,1.534351145038168,1.6106870229007633,0,0,0
1739816976.92464,1.79865966796875,-2.07648193359375,-9.201665039062501,1.015267175572519,-1.083969465648855,0.3893129770992366,0,0,0
1739816976.9373,1.9734960937500001,-1.8657202148437502,-9.24238037109375,6.251908396946565,-0.2748091603053435,1.0,0,0,0
1739816976.9499495,1.6956738281250001,-2.0812719726562503,-9.33818115234375,10.625954198473282,0.08396946564885496,1.5877862595419847,0,0,0
1739816976.9606278,1.8226098632812502,-2.2944287109375003,-9.321416015625001,9.931297709923664,-0.04580152671755725,1.3358778625954197,0,0,0
1739816976.9707296,1.81302978515625,-2.1794677734375,-9.2399853515625,9.458015267175572,0.2900763358778626,1.3282442748091603,0,0,0
1739816976.980831,1.7411791992187502,-2.117197265625,-9.1154443359375,5.091603053435114,1.9236641221374047,2.648854961832061,0,0,0
1739816976.990931,1.7962646484375,-2.2441333007812503,-8.92144775390625,-1.0763358778625953,-0.8702290076335878,2.2213740458015265,0,0,0
1739816977.0010395,1.74357421875,-2.66086669921875,-9.2351953125,1.633587786259542,-1.1603053435114503,0.3893129770992366,0,0,0
1739816977.0111766,1.8321899414062501,-2.19144287109375,-9.0675439453125,-2.717557251908397,-1.2366412213740459,0.04580152671755725,0,0,0
1739816977.0213146,1.7627343750000002,-2.002236328125,-9.1920849609375,-5.3816793893129775,-2.0381679389312977,-0.33587786259541985,0,0,0
1739816977.0314543,1.82021484375,-2.1507275390625002,-9.216035156250001,-3.732824427480916,-2.0,-0.5038167938931297,0,0,0
1739816977.0415604,1.8273999023437502,-2.2465283203125,-9.196875,-5.106870229007634,-2.0763358778625953,-0.8320610687022901,0,0,0
1739816977.0517428,1.85135009765625,-2.29682373046875,-9.21843017578125,-5.717557251908397,-2.1068702290076335,-0.648854961832061,0,0,0
1739816977.0642717,1.68848876953125,-2.232158203125,-9.24717041015625,-5.8396946564885495,-2.351145038167939,-0.6335877862595419,0,0,0
1739816977.07694,1.92799072265625,-2.1842578125000003,-9.050778808593751,-5.9541984732824424,-2.1526717557251906,-0.7480916030534351,0,0,0
1739816977.089599,1.7579443359375,-2.2561083984375,-9.04598876953125,-6.458015267175573,-2.183206106870229,-1.0534351145038168,0,0,0
1739816977.1022577,1.6860937500000002,-2.2177880859375003,-9.12741943359375,-6.67175572519084,-2.2213740458015265,-1.015267175572519,0,0,0
1739816977.114913,1.88488037109375,-2.22497314453125,-9.072333984375,-6.885496183206107,-2.4580152671755724,-1.7404580152671756,0,0,0
1739816977.127593,1.7771044921875,-2.16270263671875,-9.096284179687501,-17.35114503816794,-2.954198473282443,-2.0381679389312977,0,0,0
1739816977.1405709,1.85135009765625,-2.1507275390625002,-9.275910644531251,-12.473282442748092,-2.145038167938931,-0.7404580152671756,0,0,0
1739816977.1542654,1.85135009765625,-1.868115234375,-9.089099121093751,-13.755725190839694,-1.7099236641221374,2.16793893129771,0,0,0
1739816977.1655674,1.85614013671875,-1.9471508789062502,-9.20406005859375,-18.610687022900763,-1.083969465648855,2.7480916030534353,0,0,0
1739816977.1768284,1.829794921875,-2.4069946289062503,-9.45314208984375,-9.038167938931299,-1.5572519083969465,1.1221374045801527,0,0,0
1739816977.1880667,1.8633251953125,-2.1243823242187503,-9.340576171875,-9.114503816793894,-0.9236641221374046,3.5267175572519083,0,0,0
1739816977.1993022,1.88488037109375,-1.85135009765625,-9.410031738281251,-7.137404580152672,-0.916030534351145,5.702290076335878,0,0,0
1739816977.2105722,1.96152099609375,-2.4956103515625,-9.06275390625,-0.21374045801526717,-1.1068702290076335,2.2061068702290076,0,0,0
1739816977.2218134,1.9208056640625002,-2.0381616210937503,-9.170529785156251,-4.236641221374046,-1.6870229007633588,1.4809160305343512,0,0,0
1739816977.2330835,1.8321899414062501,-2.42615478515625,-8.9286328125,-8.15267175572519,-1.9083969465648856,0.9770992366412213,0,0,0
1739816977.2443197,1.8609301757812502,-2.0932470703125,-9.072333984375,-12.358778625954198,-2.4580152671755724,1.816793893129771,0,0,0
1739816977.2559218,1.868115234375,-2.06211181640625,-9.06275390625,-17.30534351145038,-2.1297709923664123,1.3358778625954197,0,0,0
1739816977.2685962,1.9687060546875002,-2.2537133789062502,-9.103469238281251,-19.198473282442748,-2.0610687022900764,2.5267175572519083,0,0,0
1739816977.2812529,1.8657202148437502,-2.2872436523437503,-9.273515625,-21.12213740458015,-2.618320610687023,1.0305343511450382,0,0,0
1739816977.2938998,1.9902612304687501,-2.22497314453125,-9.44595703125,-21.328244274809162,-2.6259541984732824,1.1526717557251909,0,0,0
1739816977.3065856,1.7866845703125,-2.40220458984375,-9.201665039062501,-22.717557251908396,-2.312977099236641,1.8091603053435115,0,0,0
1739816977.3192456,1.9878662109375,-2.19623291015625,-9.223220214843751,-21.870229007633586,-2.404580152671756,1.7938931297709924,0,0,0
1739816977.3318903,1.9591259765625002,-1.35797607421875,-9.42919189453125,-21.68702290076336,-2.763358778625954,0.5114503816793893,0,0,0
1739816977.3445435,1.7890795898437502,-1.542392578125,-9.216035156250001,-22.885496183206108,-1.7099236641221374,3.4122137404580153,0,0,0
1739816977.3572135,1.8226098632812502,-2.2752685546875,-9.3453662109375,-25.3206106870229,-2.5114503816793894,2.5419847328244276,0,0,0
1739816977.3698585,1.9495458984375,-2.56506591796875,-9.314230957031251,-20.03053435114504,-3.0610687022900764,-0.1297709923664122,0,0,0
1739816977.3825042,1.81781982421875,-1.56873779296875,-9.2399853515625,-25.61832061068702,-2.7022900763358777,0.8854961832061069,0,0,0
1739816977.395147,1.8729052734375,-2.22018310546875,-9.48188232421875,-22.03053435114504,-1.984732824427481,-2.427480916030534,0,0,0
1739816977.4078274,1.6908837890625001,-1.7555493164062501,-9.36692138671875,-16.80916030534351,-3.0,-1.8931297709923665,0,0,0
1739816977.4204776,1.92799072265625,-1.7627343750000002,-9.28070068359375,-14.007633587786259,-2.7557251908396947,-1.717557251908397,0,0,0
1739816977.4331543,1.7004638671875,-1.791474609375,-9.28070068359375,-11.427480916030534,-2.50381679389313,-1.083969465648855,0,0,0
1739816977.445798,1.9854711914062502,-1.81781982421875,-9.27112060546875,-10.641221374045802,-3.7557251908396947,-0.015267175572519083,0,0,0
1739816977.4584806,1.83697998046875,-1.6429833984375002,-9.49625244140625,-12.908396946564885,-1.2366412213740459,0.007633587786259542,0,0,0
1739816977.4711483,1.97110107421875,-2.11959228515625,-9.436376953125,-2.732824427480916,-1.3282442748091603,0.6259541984732825,0,0,0
1739816977.483819,1.8657202148437502,-1.9208056640625002,-9.21843017578125,3.7022900763358777,-0.9236641221374046,0.5343511450381679,0,0,0
1739816977.4964788,1.9519409179687501,-1.7962646484375,-9.33099609375,3.480916030534351,-1.4427480916030535,0.2900763358778626,0,0,0
1739816977.509195,1.79865966796875,-1.8441650390625002,-9.48188232421875,2.564885496183206,-1.366412213740458,0.07633587786259542,0,0,0
1739816977.5218446,1.79865966796875,-1.91841064453125,-9.25675048828125,0.42748091603053434,-1.5725190839694656,-0.16030534351145037,0,0,0
1739816977.5344865,1.9687060546875002,-1.8824853515625002,-9.314230957031251,1.9465648854961832,-1.1221374045801527,0.48091603053435117,0,0,0
1739816977.5471454,1.88967041015625,-1.8776953125,-9.34776123046875,1.6106870229007633,-1.0076335877862594,1.4885496183206106,0,0,0
1739816977.5598087,1.7028588867187502,-1.57352783203125,-9.263935546875,-5.473282442748092,-1.16793893129771,2.4198473282442747,0,0,0
1739816977.5724518,1.6956738281250001,-2.3519091796875,-9.12741943359375,-3.8091603053435112,-1.5267175572519085,2.2290076335877864,0,0,0
1739816977.5850964,1.85853515625,-1.7387841796875,-9.321416015625001,-8.458015267175572,-1.465648854961832,3.8702290076335877,0,0,0
1739816977.597739,1.82021484375,-1.9519409179687501,-9.3118359375,-9.145038167938932,-1.4122137404580153,1.8702290076335877,0,0,0
1739816977.6104121,1.92320068359375,-1.91841064453125,-9.225615234375,-3.877862595419847,-1.2061068702290076,3.801526717557252,0,0,0
1739816977.6230578,1.71722900390625,-1.85853515625,-9.44356201171875,6.778625954198473,-0.20610687022900764,3.816793893129771,0,0,0
1739816977.6356988,1.9543359375,-1.8537451171875001,-9.433981933593751,19.519083969465647,0.7633587786259542,5.809160305343512,0,0,0
1739816977.6483388,1.68848876953125,-1.40108642578125,-10.32971923828125,66.16793893129771,5.412213740458015,32.12977099236641,0,0,0
1739816977.6609955,0.89813232421875,0.87418212890625,-9.244775390625,98.64885496183206,2.8931297709923665,13.702290076335878,0,0,0
1739816977.6736832,2.3974145507812503,-3.0416748046875,-7.73830810546875,40.17557251908397,4.152671755725191,16.68702290076336,0,0,0
1739816977.6863618,2.26808349609375,-2.5938061523437503,-9.1585546875,38.717557251908396,5.145038167938932,13.0,0,0,0
1739816977.6990364,1.7004638671875,-2.806962890625,-9.170529785156251,22.015267175572518,2.381679389312977,7.351145038167939,0,0,0
1739816977.7118347,1.68848876953125,-2.8165429687500003,-9.1537646484375,23.572519083969464,2.3282442748091605,1.251908396946565,3,3,468
1739816977.7244835,1.9854711914062502,-3.4631982421875,-8.83283203125,35.33587786259542,-0.5267175572519084,-7.267175572519084,3,3,468
1739816977.737145,1.92799072265625,-3.3314721679687502,-8.931027832031251,42.55725190839695,-4.259541984732825,-4.4961832061068705,3,3,468
1739816977.7510045,1.9734960937500001,-2.9027636718750003,-9.148974609375001,38.14503816793893,-3.6259541984732824,-2.954198473282443,3,3,468
1739816977.7630234,1.2166699218750001,-2.4668701171875003,-8.03529052734375,37.45038167938932,7.404580152671755,-0.6946564885496184,3,3,468
1739816977.7742658,1.50167724609375,-3.1039453125,-8.99329833984375,31.129770992366414,5.587786259541985,-0.5267175572519084,3,3,468
1739816977.7854993,2.04295166015625,-3.4152978515625003,-8.48076416015625,42.23664122137404,4.305343511450381,-5.122137404580153,3,3,468
1739816977.7967317,1.96631103515625,-3.50391357421875,-8.75379638671875,44.98473282442748,0.31297709923664124,-5.435114503816794,3,3,468
1739816977.807963,2.0357666015625,-3.5446289062500003,-8.765771484375,49.52671755725191,-0.5419847328244275,-2.4885496183206106,5,5,732
1739816977.8191936,1.8154248046875001,-3.6045043945312503,-8.617280273437501,46.534351145038165,-0.6717557251908397,1.5419847328244274,5,5,732
1739816977.8304243,1.99984130859375,-3.61408447265625,-8.60530517578125,43.595419847328245,-0.06870229007633588,1.6030534351145038,5,5,732
1739816977.8416543,2.08606201171875,-3.77215576171875,-8.550219726562501,38.37404580152672,-2.595419847328244,-0.9465648854961832,5,5,732
1739816977.8528855,1.9591259765625002,-3.9182519531250004,-8.401728515625,26.81679389312977,-4.66412213740458,-3.5572519083969465,5,5,732
1739816977.8648024,1.9519409179687501,-3.79610595703125,-8.68673583984375,19.221374045801525,-4.7251908396946565,-2.4580152671755724,5,5,732
1739816977.8774562,1.9136206054687501,-3.6907250976562502,-8.70589599609375,11.564885496183207,-5.488549618320611,-5.786259541984733,5,5,732
1739816977.8901381,1.91841064453125,-3.956572265625,-8.6268603515625,5.6106870229007635,-6.916030534351145,-5.152671755725191,5,5,732
1739816977.9028926,1.839375,-3.554208984375,-9.254355468750001,24.48854961832061,-1.2442748091603053,1.6030534351145038,5,5,732
1739816977.9155452,1.906435546875,-3.94938720703125,-8.849597167968751,48.57251908396947,2.564885496183206,8.511450381679388,6,6,826
1739816977.928193,1.88488037109375,-4.0284228515625005,-8.8855224609375,49.725190839694655,0.5114503816793893,4.824427480916031,6,6,826
1739816977.940857,2.069296875,-4.0284228515625005,-8.497529296875001,42.32824427480916,0.45038167938931295,2.9770992366412212,6,6,826
1739816977.9535065,1.88967041015625,-4.50024169921875,-8.557404785156251,40.62595419847328,-1.0687022900763359,2.7938931297709924,6,6,826
1739816977.966236,1.7483642578125,-4.581672363281251,-8.3155078125,45.221374045801525,-0.2595419847328244,1.8549618320610688,6,6,826
1739816977.9788904,2.040556640625,-4.581672363281251,-8.33466796875,50.70992366412214,-1.8625954198473282,2.763358778625954,6,6,826
1739816977.9915442,1.8920654296875001,-4.89781494140625,-8.23168212890625,47.69465648854962,-1.4351145038167938,1.0916030534351144,6,6,826
1739816978.0041947,1.88488037109375,-4.837939453125,-9.201665039062501,74.3206106870229,2.8091603053435112,8.595419847328245,6,6,826
1739816978.0168464,1.638193359375,-5.01756591796875,-8.54782470703125,111.3587786259542,2.648854961832061,8.664122137404581,6,6,849
1739816978.029502,2.0453466796875,-5.187612304687501,-8.452023925781251,152.95419847328245,13.648854961832061,28.137404580152673,6,6,849
1739816978.042148,2.4381298828125,-5.53010009765625,-7.7071728515625,165.98473282442748,17.18320610687023,27.595419847328245,6,6,849
1739816978.0548112,1.77949951171875,-5.83666259765625,-7.386240234375,173.31297709923663,13.84732824427481,22.53435114503817,6,6,849
1739816978.0674753,1.76512939453125,-6.24860595703125,-7.20661376953125,179.4732824427481,8.50381679389313,11.83206106870229,6,6,849
1739816978.0801501,1.96152099609375,-6.318061523437501,-7.12039306640625,184.35114503816794,6.00763358778626,10.427480916030534,6,6,849
1739816978.0928047,1.5950830078125,-6.844965820312501,-7.12518310546875,194.7175572519084,4.412213740458015,10.900763358778626,6,6,849
1739816978.1054578,1.6046630859375002,-7.04854248046875,-6.823410644531251,216.5114503816794,11.038167938931299,12.603053435114504,6,6,849
1739816978.1181045,2.15312255859375,-7.2353540039062505,-6.02347412109375,211.06106870229007,12.893129770992367,12.366412213740459,6,7,852
1739816978.130752,1.7459692382812502,-7.656877441406251,-5.513334960937501,202.70229007633588,4.801526717557252,8.938931297709924,6,7,852
1739816978.1434317,1.8753002929687501,-7.95146484375,-5.0199609375000005,172.45801526717557,3.0,6.320610687022901,6,7,852
1739816978.1561046,2.0381616210937503,-8.0807958984375,-5.19479736328125,167.17557251908397,3.6793893129770994,5.977099236641221,6,7,852
1739816978.1687598,2.1219873046875,-8.24605224609375,-5.09899658203125,168.01526717557252,3.3435114503816794,7.694656488549619,6,7,852
1739816978.1814067,1.8776953125,-8.490344238281251,-4.49066162109375,168.10687022900763,1.5267175572519085,7.419847328244275,6,7,852
1739816978.1940536,1.9878662109375,-8.58614501953125,-3.9422021484375,159.4351145038168,1.748091603053435,9.618320610687023,6,7,852
1739816978.2067044,1.9495458984375,-9.26633056640625,-4.608017578125001,227.45038167938932,3.5801526717557253,16.732824427480917,6,7,852
1739816978.219356,1.9471508789062502,-9.18010986328125,-2.7255322265625,249.10687022900763,-9.610687022900763,16.984732824427482,6,6,855
1739816978.232001,1.6621435546875,-9.03161865234375,-1.97110107421875,201.9770992366412,-13.725190839694656,12.82442748091603,6,6,855
1739816978.2446463,1.71722900390625,-9.48427734375,-1.9974462890625,177.19847328244273,-21.52671755725191,8.022900763358779,6,6,855
1739816978.2573366,1.7675244140625002,-9.290280761718751,-1.6717236328125,147.00763358778627,-18.740458015267176,8.732824427480915,6,6,855
1739816978.270005,1.95673095703125,-9.45793212890625,-1.3843212890625,116.57251908396947,-14.129770992366412,10.564885496183207,6,6,855
1739816978.282682,1.8226098632812502,-9.702224121093751,-1.28133544921875,120.64885496183206,-14.564885496183207,16.419847328244273,6,6,855
1739816978.295334,1.9088305664062502,-9.73096435546875,-1.3483959960937502,143.36641221374046,-26.366412213740457,15.86259541984733,6,6,855
1739816978.3079956,1.44898681640625,-9.97046630859375,-0.70174072265625,149.29770992366412,-30.18320610687023,12.992366412213741,6,6,855
1739816978.3206506,1.7076489257812502,-9.81239501953125,-0.15328125,155.25190839694656,-30.282442748091604,14.381679389312977,7,7,861
1739816978.3332999,1.76512939453125,-9.85550537109375,0.05987548828125,153.83969465648855,-28.49618320610687,12.236641221374045,7,7,861
1739816978.3468375,2.2776635742187503,-9.283095703125001,-0.3400927734375,120.01526717557252,-26.557251908396946,9.106870229007633,7,7,861
1739816978.3595788,1.7627343750000002,-9.920170898437501,1.5064672851562502,124.17557251908397,-24.908396946564885,6.450381679389313,7,7,861
1739816978.3708982,1.7411791992187502,-9.35255126953125,0.39278320312500004,90.25954198473282,-24.396946564885496,11.099236641221374,7,7,861
1739816978.3821378,1.5831079101562502,-9.65911376953125,1.1687695312500002,74.90839694656489,-15.221374045801527,5.938931297709924,7,7,861
1739816978.3934307,1.9016455078125,-9.77886474609375,0.39996826171875,84.85496183206106,-23.35114503816794,8.358778625954198,7,7,861
1739816978.4046664,1.638193359375,-10.114167480468751,0.9651928710937501,104.70992366412214,-23.18320610687023,7.519083969465649,7,7,861
1739816978.4159048,1.19990478515625,-10.09740234375,1.53041748046875,120.2442748091603,-29.96946564885496,3.7022900763358777,7,7,865
1739816978.427139,1.3699511718750002,-10.4183349609375,1.4561718750000001,130.19847328244273,-31.893129770992367,4.183206106870229,7,7,865
1739816978.4383717,1.274150390625,-9.96567626953125,2.251318359375,124.74045801526718,-32.33587786259542,3.6946564885496183,7,7,865
1739816978.449603,1.3172607421875,-9.972861328125001,2.33514404296875,117.89312977099236,-27.068702290076335,3.3893129770992365,7,7,865
1739816978.4610722,1.60705810546875,-10.049501953125,2.7494824218750002,110.0381679389313,-25.129770992366414,2.2290076335877864,7,7,865
1739816978.4737391,1.3148657226562501,-9.359736328125,3.0728100585937503,90.21374045801527,-18.427480916030536,1.3282442748091603,7,7,865
1739816978.486409,1.4897021484375002,-9.4220068359375,2.9291088867187502,75.04580152671755,-14.358778625954198,-1.083969465648855,7,7,865
1739816978.4990544,1.36037109375,-9.350156250000001,3.2883618164062502,66.42748091603053,-15.244274809160306,-0.7709923664122137,7,7,865
1739816978.5117016,1.5328125000000001,-9.216035156250001,3.1255004882812503,58.30534351145038,-5.908396946564886,-1.7099236641221374,7,7,872
1739816978.5243442,1.81781982421875,-9.37171142578125,3.2117211914062502,59.0,-7.465648854961832,-0.3435114503816794,7,7,872
1739816978.5369916,1.28133544921875,-9.620793457031251,3.31470703125,63.717557251908396,-6.961832061068702,-0.32061068702290074,7,7,872
1739816978.549645,1.18074462890625,-8.94060791015625,4.2583447265625,44.89312977099237,-4.534351145038168,-0.22900763358778625,7,7,872
1739816978.562305,1.2597802734375,-8.923842773437501,4.33259033203125,27.549618320610687,-7.465648854961832,-1.4580152671755726,7,7,872
1739816978.5749516,1.4681469726562502,-8.823251953125,4.57927734375,8.358778625954198,-7.015267175572519,-2.366412213740458,7,7,872
1739816978.5875955,1.5184423828125,-9.28070068359375,3.8943017578125003,7.763358778625954,-1.83206106870229,-2.5419847328244276,7,7,872
1739816978.6002376,1.580712890625,-9.493857421875001,3.5254687500000004,14.854961832061068,0.1297709923664122,-3.16793893129771,7,7,872
1739816978.6128836,1.48730712890625,-9.30465087890625,3.803291015625,17.770992366412212,2.0229007633587788,-2.8702290076335877,7,7,879
1739816978.6255333,1.82021484375,-7.7478881835937505,3.9110668945312503,21.099236641221374,-0.8091603053435115,-0.6183206106870229,7,7,879
1739816978.6381798,1.59747802734375,-9.050778808593751,4.6343627929687505,20.061068702290076,-7.793893129770993,1.3969465648854962,7,7,879
1739816978.6508281,1.24541015625,-8.990903320312501,4.4068359375,22.290076335877863,-9.091603053435115,0.2824427480916031,7,7,879
1739816978.6634934,1.2693603515625,-9.29986083984375,4.2080493164062505,24.49618320610687,-11.679389312977099,0.7175572519083969,7,7,879
1739816978.6761792,1.4322216796875,-9.050778808593751,4.3062451171875,23.85496183206107,-13.51908396946565,0.5038167938931297,7,7,879
1739816978.688857,1.5112573242187501,-9.163344726562501,4.282294921875001,20.099236641221374,-10.34351145038168,0.25190839694656486,7,7,879
1739816978.701507,1.05620361328125,-9.1729248046875,4.205654296875,13.931297709923664,-8.053435114503817,-0.5267175572519084,7,7,879
1739816978.7141538,1.2669653320312502,-8.97413818359375,4.588857421875001,5.854961832061068,-4.824427480916031,-1.3587786259541985,6,7,881
1739816978.7268937,1.42024658203125,-9.3118359375,4.33738037109375,10.65648854961832,-5.0534351145038165,-2.427480916030534,6,7,881
1739816978.7395744,1.5112573242187501,-9.208850097656251,4.40444091796875,18.16793893129771,-3.9389312977099236,-3.6259541984732824,6,7,881
1739816978.752233,1.4178515625,-8.95018798828125,4.59125244140625,19.022900763358777,-3.8091603053435112,-3.2595419847328246,6,7,881
1739816978.764937,1.56394775390625,-8.729846191406251,4.8068041992187505,13.778625954198473,-3.633587786259542,-2.3053435114503817,6,7,881
1739816978.7775917,1.62861328125,-8.751401367187501,4.77806396484375,9.17557251908397,-4.083969465648855,-1.099236641221374,6,7,881
1739816978.7902443,1.4801220703125,-8.79211669921875,4.71100341796875,4.061068702290076,-5.412213740458015,-1.0305343511450382,6,7,881
1739816978.8028965,1.47772705078125,-8.7801416015625,4.77806396484375,-1.5954198473282444,-7.770992366412214,-1.2213740458015268,6,7,881
1739816978.8155491,1.4322216796875,-8.67955078125,4.85949462890625,-11.0,-6.022900763358779,-1.6488549618320612,7,7,881
1739816978.828202,1.4130615234375001,-8.6364404296875,4.77806396484375,-24.709923664122137,-6.6183206106870225,-2.4732824427480917,7,7,881
1739816978.8408558,1.3460009765625,-8.823251953125,4.6319677734375,-31.557251908396946,-7.305343511450381,-5.015267175572519,7,7,881
1739816978.8535066,1.4178515625,-8.75619140625,4.82596435546875,-42.02290076335878,-3.122137404580153,-4.8396946564885495,7,7,881
1739816978.8662105,1.5543676757812501,-8.650810546875,4.74453369140625,-54.0,-2.236641221374046,-5.404580152671755,7,7,881
1739816978.8789,1.619033203125,-9.103469238281251,4.19846923828125,-53.55725190839695,-0.6030534351145038,-3.0839694656488548,7,7,881
1739816978.8915548,1.5064672851562502,-9.06514892578125,4.33259033203125,-60.3206106870229,1.5419847328244274,-4.633587786259542,7,7,881
1739816978.9042094,1.60226806640625,-8.75619140625,4.308640136718751,-77.3587786259542,7.580152671755725,-5.7251908396946565,7,7,881
1739816978.916865,1.714833984375,-8.8663623046875,4.368515625000001,-100.33587786259542,13.450381679389313,-4.519083969465649,7,7,872
1739816978.9295173,1.7507592773437501,-9.04119873046875,4.00447265625,-120.04580152671755,18.358778625954198,-5.0,7,7,872
1739816978.9438746,1.73638916015625,-9.1441845703125,3.7937109375,-132.75572519083968,23.442748091603054,-3.7557251908396947,7,7,872
1739816978.9569864,1.60226806640625,-9.47230224609375,3.15424072265625,-142.13740458015266,26.244274809160306,-1.7328244274809161,7,7,872
1739816978.969046,1.43701171875,-9.40524169921875,3.2907568359375,-158.54961832061068,28.061068702290076,-0.9389312977099237,7,7,872
1739816978.9802933,1.46335693359375,-9.328601074218751,3.2715966796875002,-191.4351145038168,27.404580152671755,-1.534351145038168,7,7,872
1739816978.9915366,1.62142822265625,-9.48667236328125,2.9075537109375,-210.77862595419847,31.30534351145038,-1.2442748091603053,7,7,872
1739816979.002775,1.7100439453125,-9.666298828125,2.07169189453125,-225.96946564885496,31.80916030534351,-0.8549618320610687,7,7,872
1739816979.014016,1.37713623046875,-9.86508544921875,2.0213964843750003,-228.9236641221374,26.81679389312977,-3.6259541984732824,6,7,838
1739816979.025257,1.22385498046875,-10.049501953125,1.01788330078125,-243.76335877862596,22.045801526717558,-8.67175572519084,6,7,838
1739816979.0365257,1.3867163085937502,-10.01836669921875,0.38559814453125,-250.13740458015266,27.793893129770993,-8.870229007633588,6,7,838
1739816979.0477684,1.6357983398437501,-10.03752685546875,0.5676196289062501,-250.13740458015266,24.259541984732824,-10.114503816793894,6,7,838
1739816979.0590646,1.59029296875,-10.05908203125,-0.354462890625,-250.13740458015266,21.18320610687023,-10.870229007633588,6,7,838
1739816979.0713341,1.2789404296875,-9.74533447265625,-0.69216064453125,-250.13740458015266,18.938931297709924,-7.8320610687022905,6,7,838
1739816979.0839944,1.1567944335937501,-9.225615234375,-0.7232958984375001,-250.13740458015266,1.7251908396946565,3.8625954198473282,6,7,838
1739816979.0966678,-3.0392797851562503,2.6632617187500003,-5.4845947265625,-250.13740458015266,46.35114503816794,42.6412213740458,6,7,838
1739816979.1093752,5.7983422851562505,-9.342971191406251,-5.87019287109375,-250.13740458015266,-10.183206106870228,-12.061068702290076,6,7,838
1739816979.1220293,0.40236328125000004,-9.613608398437501,-1.7507592773437501,-250.13740458015266,-10.48091603053435,-37.89312977099237,6,6,811
1739816979.1347075,1.02746337890625,-8.8903125,-2.375859375,-250.13740458015266,-30.9618320610687,-36.81679389312977,6,6,811
1739816979.147382,1.2981005859375,-8.44244384765625,-4.13140869140625,-250.13740458015266,-34.900763358778626,-36.13740458015267,6,6,811
1739816979.1600668,1.082548828125,-8.27479248046875,-5.15168701171875,-250.13740458015266,-37.13740458015267,-41.38931297709924,6,6,811
1739816979.172729,1.2981005859375,-7.9873901367187505,-5.451064453125,-250.13740458015266,-38.87022900763359,-42.02290076335878,6,6,811
1739816979.1855395,1.3364208984375001,-9.225615234375,-7.1802685546875,-250.13740458015266,-34.31297709923664,-42.58015267175573,6,6,811
1739816979.1983585,1.638193359375,-7.762258300781251,-6.96711181640625,-224.5648854961832,-25.114503816793892,-34.343511450381676,6,6,811
1739816979.2110622,1.2502001953125002,-5.431904296875,-6.823410644531251,-189.50381679389312,-17.68702290076336,-32.770992366412216,6,6,811
1739816979.2237136,1.50167724609375,-5.8845629882812505,-6.897656250000001,-192.206106870229,-18.137404580152673,-30.793893129770993,0,0,0
1739816979.2363586,1.504072265625,-6.7491650390625,-6.83299072265625,-205.29007633587787,-20.51145038167939,-29.82442748091603,0,0,0
1739816979.2490094,1.25259521484375,-5.8294775390625,-7.7407031250000005,-212.31297709923663,-17.603053435114504,-25.763358778625953,0,0,0
1739816979.2618341,1.4729370117187501,-4.6343627929687505,-8.210126953125,-220.53435114503816,-13.442748091603054,-23.763358778625953,0,0,0
1739816979.2734182,1.3962963867187501,-4.8714697265625,-8.29874267578125,-224.3740458015267,-11.274809160305344,-22.114503816793892,0,0,0
1739816979.284674,1.4298266601562502,-4.4547363281250005,-8.29395263671875,-224.6793893129771,-8.83969465648855,-23.34351145038168,0,0,0
1739816979.295934,1.5926879882812501,-4.20325927734375,-8.66757568359375,-214.29770992366412,-11.114503816793894,-20.83206106870229,0,0,0
1739816979.3071666,1.5064672851562502,-4.1242236328125,-8.86875732421875,-205.89312977099237,-11.763358778625955,-24.099236641221374,0,0,0
1739816979.3184757,1.4944921875000001,-3.9422021484375,-11.88169189453125,-142.01526717557252,-12.48091603053435,12.404580152671755,6,7,841
1739816979.3298159,1.6741186523437501,-2.62733642578125,-8.78732666015625,-154.55725190839695,-9.526717557251908,-1.183206106870229,6,7,841
1739816979.3410823,1.43940673828125,-2.7973828125,-9.340576171875,-133.1679389312977,-6.885496183206107,-4.244274809160306,6,7,841
1739816979.3523228,1.39869140625,-3.42727294921875,-9.3645263671875,-108.52671755725191,-6.038167938931298,-2.480916030534351,6,7,841
1739816979.3635817,1.38192626953125,-2.41657470703125,-9.709409179687501,-78.58778625954199,-2.687022900763359,-3.7022900763358777,6,7,841
1739816979.376036,1.4250366210937502,-2.960244140625,-9.513017578125,-45.01526717557252,-3.0,-4.709923664122138,6,7,841
1739816979.3887239,1.24780517578125,-2.62494140625,-9.357341308593751,-18.908396946564885,-3.0839694656488548,-3.480916030534351,6,7,841
1739816979.4013817,1.48730712890625,-2.4836352539062503,-9.36692138671875,-7.801526717557252,1.0,-3.6793893129770994,6,7,841
1739816979.4140298,1.44419677734375,-2.51237548828125,-9.40524169921875,-6.938931297709924,2.7480916030534353,-1.5725190839694656,0,0,0
1739816979.4266813,1.6334033203125,-2.0549267578125,-9.350156250000001,-17.35114503816794,5.0534351145038165,-1.4122137404580153,0,0,0
1739816979.4393296,1.47533203125,-2.3375390625000003,-9.110654296875001,-28.541984732824428,3.519083969465649,-1.9465648854961832,0,0,0
1739816979.451977,1.4346166992187501,-2.42136474609375,-9.10107421875,-32.97709923664122,0.37404580152671757,2.1755725190839694,0,0,0
1739816979.464652,1.5232324218750002,-2.5722509765625,-9.0771240234375,-30.977099236641223,1.9389312977099236,0.7557251908396947,0,0,0
1739816979.4773152,1.5064672851562502,-1.97110107421875,-9.49625244140625,-20.106870229007633,-0.44274809160305345,0.16030534351145037,0,0,0
1739816979.490001,1.39869140625,-2.31837890625,-9.314230957031251,-19.916030534351144,-1.4809160305343512,-0.8931297709923665,0,0,0
1739816979.5026526,1.5184423828125,-2.34951416015625,-9.21364013671875,-17.022900763358777,-1.297709923664122,-0.8702290076335878,0,0,0
1739816979.5153046,1.39869140625,-2.2273681640625003,-9.3262060546875,-18.374045801526716,-1.8854961832061068,0.3816793893129771,0,0,0
1739816979.5280023,1.4418017578125,-1.81302978515625,-9.261540527343751,-26.290076335877863,-1.3893129770992367,3.099236641221374,0,0,0
1739816979.5416472,1.4897021484375002,-2.07648193359375,-9.263935546875,-29.977099236641223,-2.8091603053435112,3.1068702290076335,0,0,0
1739816979.5544775,1.65016845703125,-2.51237548828125,-9.35255126953125,-28.290076335877863,-0.3969465648854962,2.9160305343511452,0,0,0
1739816979.5672848,1.5160473632812501,-2.14833251953125,-9.4315869140625,-16.12213740458015,-1.8549618320610688,-0.6259541984732825,0,0,0
1739816979.578535,1.48251708984375,-2.23934326171875,-9.321416015625001,-15.587786259541986,-2.3282442748091605,-1.1221374045801527,0,0,0
1739816979.5897741,1.4561718750000001,-2.069296875,-9.28070068359375,-13.84732824427481,-1.9312977099236641,-1.0916030534351144,0,0,0
1739816979.6010103,1.57352783203125,-1.71722900390625,-9.29986083984375,-17.068702290076335,-0.24427480916030533,0.5267175572519084,0,0,0
1739816979.6122434,1.6693286132812502,-1.73159912109375,-9.32381103515625,-22.022900763358777,-1.5725190839694656,1.0610687022900764,0,0,0
1739816979.6234815,1.4849121093750002,-2.48842529296875,-9.263935546875,-14.267175572519085,-3.8931297709923665,0.8091603053435115,0,0,0
1739816979.6347153,1.4944921875000001,-1.753154296875,-9.49625244140625,-15.412213740458014,-2.4656488549618323,0.4732824427480916,0,0,0
1739816979.6459935,1.4992822265625,-2.07648193359375,-9.261540527343751,-14.702290076335878,-2.6259541984732824,1.8931297709923665,0,0,0
1739816979.6572325,1.6813037109375002,-2.2944287109375003,-9.290280761718751,-17.404580152671755,-2.381679389312977,-0.08396946564885496,0,0,0
1739816979.6687586,1.3867163085937502,-1.8273999023437502,-9.21364013671875,-22.3206106870229,-1.786259541984733,0.7862595419847328,0,0,0
1739816979.6814048,1.5112573242187501,-1.7555493164062501,-9.321416015625001,-23.641221374045802,-1.2748091603053435,1.5572519083969465,0,0,0
1739816979.6940513,1.45856689453125,-1.57352783203125,-9.42440185546875,-19.84732824427481,-3.854961832061069,0.4580152671755725,0,0,0
1739816979.7067223,1.3867163085937502,-2.069296875,-9.34776123046875,-17.984732824427482,-1.4732824427480915,0.3435114503816794,0,0,0
1739816979.719376,1.64537841796875,-2.0453466796875,-9.378896484375,-16.69465648854962,-1.549618320610687,0.6335877862595419,0,0,0
1739816979.7320247,1.4849121093750002,-1.88488037109375,-9.6327685546875,-16.923664122137403,-1.0,0.5343511450381679,0,0,0
1739816979.7447119,1.53041748046875,-2.06690185546875,-9.216035156250001,-19.458015267175572,-2.4427480916030535,1.8625954198473282,0,0,0
1739816979.7573614,1.5088623046875,-1.4034814453125,-9.225615234375,-22.916030534351144,-1.7251908396946565,0.19083969465648856,0,0,0
1739816979.7700238,1.4034814453125,-1.5543676757812501,-9.340576171875,-27.015267175572518,0.366412213740458,-2.099236641221374,0,0,0
1739816979.782676,2.069296875,-2.28005859375,-9.170529785156251,-24.47328244274809,0.5343511450381679,-3.8244274809160306,0,0,0
1739816979.7953238,1.59747802734375,-2.10522216796875,-9.37650146484375,-21.389312977099237,0.007633587786259542,-1.2213740458015268,0,0,0
1739816979.8079748,1.6813037109375002,-1.9687060546875002,-9.45314208984375,-19.778625954198475,-0.2824427480916031,0.4351145038167939,0,0,0
1739816979.8206236,1.657353515625,-1.7483642578125,-9.4794873046875,-20.69465648854962,-0.05343511450381679,-1.0534351145038168,0,0,0
1739816979.8332732,1.52083740234375,-1.542392578125,-9.25675048828125,-17.53435114503817,-1.5114503816793894,-0.9236641221374046,0,0,0
1739816979.8459215,1.55197265625,-1.7938696289062501,-9.223220214843751,-17.15267175572519,-1.3435114503816794,-1.534351145038168,0,0,0
1739816979.8585792,1.55197265625,-1.5759228515625001,-9.30944091796875,-16.900763358778626,-0.03816793893129771,-0.816793893129771,0,0,0
1739816979.871294,1.4897021484375002,-1.638193359375,-9.4890673828125,-14.86259541984733,-0.9618320610687023,-0.5801526717557252,0,0,0
1739816979.88395,1.561552734375,-1.3962963867187501,-9.4890673828125,-13.061068702290076,-1.2366412213740459,-0.8778625954198473,0,0,0
1739816979.8965993,1.580712890625,-1.5878979492187502,-9.44356201171875,-9.992366412213741,-1.282442748091603,-1.1755725190839694,0,0,0
1739816979.9092526,1.38192626953125,-1.657353515625,-9.36931640625,-9.412213740458014,-1.6793893129770991,-1.381679389312977,0,0,0
1739816979.9219015,1.5328125000000001,-1.5112573242187501,-9.230405273437501,-9.664122137404581,-1.6870229007633588,-1.381679389312977,0,0,0
1739816979.9345682,1.59747802734375,-1.3915063476562501,-9.268725585937501,-10.931297709923664,-1.7099236641221374,-1.6717557251908397,0,0,0
1739816979.9472508,1.61184814453125,-1.5064672851562502,-9.4603271484375,-11.320610687022901,-1.984732824427481,-1.4351145038167938,0,0,0
1739816979.9599044,1.53041748046875,-1.4729370117187501,-9.410031738281251,-10.633587786259541,-1.3435114503816794,-0.7862595419847328,0,0,0
1739816979.9725864,1.41066650390625,-1.4034814453125,-9.426796875,-8.992366412213741,-1.297709923664122,-0.6106870229007634,0,0,0
1739816979.9852378,1.5663427734375002,-1.6429833984375002,-9.3166259765625,-7.763358778625954,-1.5877862595419847,-0.7099236641221374,0,0,0
1739816979.9978864,1.5711328125000001,-1.4513818359375001,-9.469907226562501,-10.114503816793894,-1.16793893129771,-0.7938931297709924,0,0,0
1739816980.0105338,1.5663427734375002,-1.5280224609375002,-9.441166992187501,-10.969465648854962,-1.8473282442748091,-0.7709923664122137,0,0,0
1739816980.0231807,1.65016845703125,-1.5328125000000001,-9.3932666015625,-10.923664122137405,-2.1908396946564888,-0.8473282442748091,0,0,0
1739816980.0358312,1.59747802734375,-1.5184423828125,-9.469907226562501,-9.541984732824428,-0.19083969465648856,-0.9923664122137404,0,0,0
1739816980.0484781,1.5543676757812501,-1.4705419921875,-9.4507470703125,-8.992366412213741,-2.2900763358778624,-1.16793893129771,0,0,0
1739816980.061131,1.61663818359375,-1.5184423828125,-9.40763671875,-8.49618320610687,-2.4656488549618323,-1.16793893129771,0,0,0
1739816980.07381,1.5759228515625001,-1.4849121093750002,-9.398056640625,-9.068702290076336,-2.3893129770992365,-1.3511450381679388,0,0,0
1739816980.08646,1.6142431640625001,-1.3939013671875,-9.3166259765625,-11.022900763358779,-1.816793893129771,-1.3053435114503817,0,0,0
1739816980.09911,1.5950830078125,-1.4418017578125,-9.29267578125,-10.618320610687023,-1.8854961832061068,-1.1526717557251909,0,0,0
1739816980.1117952,1.61663818359375,-1.47533203125,-9.381291503906251,-9.65648854961832,-1.786259541984733,-0.9923664122137404,0,0,0
1739816980.1244462,1.5711328125000001,-1.4609619140625,-9.501042480468751,-8.083969465648854,-1.6412213740458015,-1.5572519083969465,0,0,0
1739816980.1370988,1.5878979492187502,-1.4298266601562502,-9.2783056640625,-10.01526717557252,-0.022900763358778626,-1.7557251908396947,0,0,0
1739816980.1501002,1.599873046875,-1.45377685546875,-9.4507470703125,-10.793893129770993,-1.8702290076335877,-1.4809160305343512,0,0,0
1739816980.1631455,1.6094531250000002,-1.5328125000000001,-9.398056640625,-9.541984732824428,-1.633587786259542,-1.1984732824427482,0,0,0
1739816980.175117,1.6094531250000002,-1.44898681640625,-9.395661621093751,-8.450381679389313,-1.7938931297709924,-1.1221374045801527,0,0,0
1739816980.1863606,1.5878979492187502,-1.41545654296875,-9.4794873046875,-8.236641221374045,-2.2213740458015265,-1.366412213740458,0,0,0
1739816980.1976044,1.638193359375,-1.4178515625,-9.321416015625001,-8.16030534351145,-2.2748091603053435,-1.2061068702290076,0,0,0
1739816980.2088432,1.6046630859375002,-1.4082714843750002,-9.3549462890625,-7.458015267175573,-2.2977099236641223,-1.1068702290076335,0,0,0
1739816980.220074,1.6094531250000002,-1.38192626953125,-9.208850097656251,-7.190839694656488,-2.1526717557251906,-0.8549618320610687,0,0,0
1739816980.2313073,1.59029296875,-1.4250366210937502,-9.462722167968751,-7.145038167938932,-2.427480916030534,-1.0305343511450382,0,0,0
1739816980.2425385,1.5878979492187502,-1.4346166992187501,-9.314230957031251,-7.465648854961832,-2.366412213740458,-1.2366412213740459,0,0,0
1739816980.2541046,1.59029296875,-1.4465917968750002,-9.448352050781251,-7.519083969465649,-2.4427480916030535,-1.3053435114503817,0,0,0
1739816980.2654264,1.6741186523437501,-1.38192626953125,-9.40763671875,-7.687022900763359,-2.4885496183206106,-1.1908396946564885,0,0,0
1739816980.2778404,1.65974853515625,-1.3962963867187501,-9.41961181640625,-7.564885496183206,-2.5877862595419847,-1.1984732824427482,0,0,0
1739816980.2904992,1.59747802734375,-1.46335693359375,-9.469907226562501,-8.366412213740459,-2.549618320610687,-1.2061068702290076,0,0,0
1739816980.303149,1.619033203125,-1.4298266601562502,-9.395661621093751,-9.16793893129771,-2.877862595419847,-1.549618320610687,0,0,0
1739816980.3157983,1.6238232421875,-1.4082714843750002,-9.314230957031251,-10.213740458015268,-2.66412213740458,-1.4732824427480915,0,0,0
1739816980.328451,1.5663427734375002,-1.4226416015625,-9.39087158203125,-10.877862595419847,-2.83206106870229,-1.5190839694656488,0,0,0
1739816980.3411102,1.6429833984375002,-1.41545654296875,-9.48188232421875,-10.83969465648855,-2.687022900763359,-1.1068702290076335,0,0,0
1739816980.3537843,1.5759228515625001,-1.3843212890625,-9.41482177734375,-11.396946564885496,-2.5801526717557253,-1.183206106870229,0,0,0
1739816980.3664322,1.64058837890625,-1.4513818359375001,-9.433981933593751,-11.83206106870229,-2.6030534351145036,-1.2595419847328244,0,0,0
1739816980.3790803,1.599873046875,-1.30049560546875,-9.29267578125,-13.625954198473282,-1.3587786259541985,-1.1450381679389312,0,0,0
1739816980.3917534,1.53999755859375,-1.33402587890625,-9.3645263671875,-13.717557251908397,-0.022900763358778626,-0.6946564885496184,0,0,0
1739816980.404401,1.56873779296875,-1.302890625,-9.378896484375,-14.786259541984732,-2.595419847328244,-0.5343511450381679,0,0,0
1739816980.4170504,1.64058837890625,-1.3555810546875,-9.30465087890625,-13.725190839694656,-2.572519083969466,-0.4351145038167939,0,0,0
1739816980.4296985,1.619033203125,-1.350791015625,-9.37171142578125,-15.908396946564885,-2.572519083969466,-0.09923664122137404,0,0,0
1739816980.4423444,1.5759228515625001,-1.1567944335937501,-9.46751220703125,-17.442748091603054,-2.1374045801526718,-0.4122137404580153,0,0,0
1739816980.454993,1.60705810546875,-1.28133544921875,-9.49146240234375,-12.122137404580153,-2.3435114503816794,-1.6412213740458015,0,0,0
1739816980.4676545,1.28133544921875,-1.3148657226562501,-9.441166992187501,-8.916030534351146,-2.648854961832061,-1.8931297709923665,0,0,0
1739816980.480309,1.65016845703125,-1.3483959960937502,-9.302255859375,-10.374045801526718,-2.687022900763359,-1.2290076335877862,0,0,0
1739816980.4929757,1.580712890625,-1.30049560546875,-9.40524169921875,-11.007633587786259,-2.618320610687023,-1.282442748091603,0,0,0
1739816980.5056467,1.599873046875,-1.274150390625,-9.25675048828125,-11.694656488549619,-2.885496183206107,-1.6412213740458015,0,0,0
1739816980.5182955,1.599873046875,-1.2885205078125002,-9.560917968750001,-11.450381679389313,-2.954198473282443,-0.5725190839694656,284,1,1
1739816980.5309422,1.55915771484375,-3.18777099609375,-9.71180419921875,-2.1908396946564888,-1.7938931297709924,-0.022900763358778626,284,1,1
1739816980.5436058,1.580712890625,-0.8430468750000001,-9.263935546875,-8.198473282442748,-2.83206106870229,-2.045801526717557,284,1,1
1739816980.5562565,1.57831787109375,-1.24780517578125,-9.5657080078125,-1.8778625954198473,-3.931297709923664,0.22900763358778625,284,1,1
1739816980.5689719,1.6238232421875,-1.2693603515625,-9.52020263671875,6.847328244274809,-3.564885496183206,-3.3206106870229006,284,1,1
1739816980.5816205,0.83586181640625,-2.22497314453125,-9.5848681640625,18.82442748091603,-1.916030534351145,-8.694656488549619,284,1,1
1739816980.5942657,2.1076171875000003,-1.2549902343750001,-9.29267578125,13.282442748091603,-5.221374045801527,-4.198473282442748,284,1,1
1739816980.606936,1.7292041015625002,-1.32444580078125,-9.49625244140625,10.664122137404581,-4.190839694656488,-1.1984732824427482,284,1,1
1739816980.6195843,1.49209716796875,-1.5831079101562502,-9.3070458984375,5.480916030534351,-6.1679389312977095,-0.9236641221374046,677,5,5
1739816980.632259,1.72680908203125,-1.1903247070312502,-9.38608154296875,7.305343511450381,-4.480916030534351,-2.4427480916030535,677,5,5
1739816980.64493,1.6693286132812502,-1.30528564453125,-9.39087158203125,1.9770992366412214,-2.8931297709923665,1.5801526717557253,677,5,5
1739816980.6575792,1.81302978515625,-1.12326416015625,-9.553732910156251,3.9083969465648853,1.6793893129770991,-0.6564885496183206,677,5,5
1739816980.6702821,1.53041748046875,-1.65974853515625,-9.20406005859375,2.4732824427480917,-7.0,-7.793893129770993,677,5,5
1739816980.6829367,1.8010546875000002,-1.37234619140625,-9.23280029296875,2.8625954198473282,-2.183206106870229,-3.2213740458015265,677,5,5
1739816980.695592,1.5543676757812501,-1.5878979492187502,-9.63037353515625,10.450381679389313,-7.183206106870229,-11.946564885496183,677,5,5
1739816980.7082512,1.61184814453125,-2.1794677734375,-9.43877197265625,29.053435114503817,-9.053435114503817,-11.893129770992367,677,5,5
1739816980.7208965,1.64537841796875,-2.20581298828125,-9.4651171875,35.12213740458015,-10.702290076335878,-7.862595419847328,813,6,6
1739816980.7335422,1.59029296875,-1.84656005859375,-9.297465820312501,37.41984732824427,-6.5038167938931295,-4.122137404580153,813,6,6
1739816980.7465005,1.4944921875000001,-1.2789404296875,-9.45793212890625,41.00763358778626,-7.022900763358779,-4.801526717557252,813,6,6
1739816980.759145,1.42024658203125,-1.8633251953125,-9.43877197265625,36.343511450381676,-5.083969465648855,-1.4427480916030535,813,6,6
1739816980.7716813,1.59029296875,-1.829794921875,-9.27112060546875,35.25954198473283,-2.7099236641221376,-1.0458015267175573,813,6,6
1739816980.7828946,1.76033935546875,-2.42136474609375,-9.469907226562501,48.6793893129771,-6.5038167938931295,-2.2900763358778624,813,6,6
1739816980.7941003,1.49209716796875,-2.43094482421875,-9.575288085937501,61.55725190839695,0.4961832061068702,1.4274809160305344,813,6,6
1739816980.8053424,1.4705419921875,-3.0273046875,-9.28070068359375,80.44274809160305,-7.740458015267175,7.114503816793893,813,6,6
1739816980.8165474,1.88967041015625,-0.48139892578125004,-19.55054443359375,248.2824427480916,61.030534351145036,-15.076335877862595,813,6,6
1739816980.8277566,1.5711328125000001,-4.73255859375,-7.350314941406251,118.66412213740458,-0.17557251908396945,18.938931297709924,838,7,6
1739816980.8389642,1.8609301757812502,-3.7146752929687503,-9.398056640625,118.77099236641222,-1.0763358778625953,13.595419847328245,838,7,6
1739816980.8501694,1.2406201171875,-3.0296997070312504,-9.156159667968751,134.63358778625954,18.96946564885496,15.80916030534351,838,7,6
1739816980.8614173,1.427431640625,-3.2452514648437503,-9.62558349609375,153.46564885496184,23.80916030534351,21.18320610687023,838,7,6
1739816980.872749,1.41066650390625,-4.74932373046875,-8.25563232421875,167.06106870229007,12.557251908396946,16.404580152671755,838,7,6
1739816980.8839447,1.48251708984375,-4.615202636718751,-12.3343505859375,189.22137404580153,11.786259541984732,18.85496183206107,838,7,6
1739816980.895545,2.1243823242187503,-4.47629150390625,-8.75858642578125,206.00763358778627,17.557251908396946,21.33587786259542,838,7,6
1739816980.906779,1.38192626953125,-5.2115625,-8.33706298828125,217.1145038167939,20.862595419847327,17.83206106870229,838,7,6
1739816980.9179876,1.59029296875,-5.393583984375001,-8.02092041015625,232.33587786259542,22.206106870229007,17.709923664122137,839,6,6
1739816980.9291942,1.6357983398437501,-5.7911572265625,-7.4413256835937505,242.51908396946564,21.84732824427481,13.748091603053435,839,6,6
1739816980.940442,1.5495776367187502,-6.059399414062501,-7.12518310546875,245.0,11.251908396946565,12.49618320610687,839,6,6
1739816980.9516256,1.1903247070312502,-6.385122070312501,-7.079677734375,243.7175572519084,12.541984732824428,16.27480916030534,839,6,6
1739816980.962833,1.944755859375,-6.80904052734375,-6.753955078125,231.74045801526717,17.3206106870229,10.51908396946565,839,6,6
1739816980.9740512,1.79865966796875,-7.060517578125,-6.3276416015625,220.74045801526717,16.33587786259542,11.717557251908397,839,6,6
1739816980.9852798,1.6525634765625001,-7.3048095703125,-6.1575952148437505,227.18320610687022,17.541984732824428,10.030534351145038,839,6,6
1739816980.9964807,1.56873779296875,-7.65208740234375,-6.38751708984375,250.12977099236642,8.725190839694656,18.16030534351145,839,6,6
1739816981.007678,1.2885205078125002,-8.04966064453125,-5.779182128906251,250.12977099236642,14.091603053435115,24.778625954198475,839,6,6
1739816981.0188763,1.9519409179687501,-8.24126220703125,-5.13252685546875,250.12977099236642,21.480916030534353,23.412213740458014,833,6,6
1739816981.0300758,1.60705810546875,-8.6747607421875,-3.8871166992187502,250.12977099236642,14.007633587786259,14.030534351145038,833,6,6
1739816981.0412805,1.92799072265625,-8.70589599609375,-2.9650341796875,247.4198473282443,5.938931297709924,11.450381679389313,833,6,6
1739816981.0528142,1.8226098632812502,-9.0388037109375,-3.9781274414062504,250.12977099236642,5.099236641221374,16.16030534351145,833,6,6
1739816981.0640283,1.69327880859375,-9.55852294921875,-2.5938061523437503,250.12977099236642,0.9694656488549618,14.587786259541986,833,6,6
1739816981.0756388,1.82021484375,-9.194479980468751,-1.9854711914062502,250.12977099236642,-1.9541984732824427,13.442748091603054,833,6,6
1739816981.0868502,1.61663818359375,-9.5034375,-1.31965576171875,234.49618320610688,-3.0381679389312977,13.48091603053435,833,6,6
1739816981.098058,1.78189453125,-9.508227539062501,-1.12326416015625,225.5267175572519,-7.549618320610687,12.389312977099237,833,6,6
1739816981.109285,1.31965576171875,-9.5273876953125,-0.23710693359375,197.16030534351145,-7.5038167938931295,9.694656488549619,833,6,6
1739816981.1204948,1.7579443359375,-9.6040283203125,-0.06466552734375,171.99236641221373,-13.618320610687023,10.50381679389313,830,6,6
1739816981.1317008,1.6142431640625001,-9.5465478515625,0.37601806640625,140.03053435114504,-11.305343511450381,9.763358778625955,830,6,6
1739816981.142939,1.4561718750000001,-9.877060546875,0.076640625,134.94656488549617,-15.488549618320612,9.053435114503817,830,6,6
1739816981.1541333,1.65016845703125,-9.81239501953125,0.59156982421875,126.01526717557252,-13.763358778625955,7.290076335877862,830,6,6
1739816981.1653779,1.3915063476562501,-9.66390380859375,0.88855224609375,120.02290076335878,-11.076335877862595,7.595419847328245,830,6,6
1739816981.1772323,1.89446044921875,-9.98962646484375,1.11847412109375,113.40458015267176,-9.641221374045802,7.259541984732825,830,6,6
1739816981.189858,1.31965576171875,-10.0351318359375,0.87897216796875,127.9618320610687,-12.221374045801527,8.366412213740459,830,6,6
1739816981.2024755,1.2070898437500002,-10.38719970703125,1.4609619140625,151.77862595419847,-20.358778625954198,7.778625954198473,830,6,6
1739816981.2151215,1.2765454101562501,-9.9105908203125,2.0645068359375003,145.26717557251908,-17.633587786259543,4.419847328244275,830,6,6
1739816981.2277386,1.5064672851562502,-9.62558349609375,2.53632568359375,131.06106870229007,-22.64885496183206,1.8244274809160306,833,6,6
1739816981.240358,1.38192626953125,-9.57768310546875,2.442919921875,111.43511450381679,-18.83969465648855,5.679389312977099,833,6,6
1739816981.2531087,1.0753637695312501,-9.381291503906251,2.53632568359375,113.33587786259542,-13.374045801526718,3.381679389312977,833,6,6
1739816981.2658343,1.638193359375,-9.103469238281251,3.4344580078125,80.66412213740458,-7.297709923664122,2.8931297709923665,833,6,6
1739816981.2785044,1.638193359375,-8.84480712890625,3.5973193359375,60.541984732824424,-4.862595419847328,6.809160305343512,833,6,6
1739816981.2911575,1.3531860351562501,-10.4374951171875,2.65607666015625,106.90839694656489,-14.435114503816793,9.01526717557252,833,6,6
1739816981.303805,1.350791015625,-9.54894287109375,3.4344580078125,120.00763358778626,-19.732824427480917,9.412213740458014,833,6,6
1739816981.3164911,1.08015380859375,-9.32381103515625,3.88951171875,112.42748091603053,-21.16793893129771,6.564885496183206,833,6,6
1739816981.3291492,1.3483959960937502,-9.029223632812501,4.17451904296875,96.29007633587786,-17.6793893129771,5.305343511450381,834,6,6
1739816981.3419476,1.28612548828125,-8.9813232421875,4.375700683593751,79.16030534351145,-12.488549618320612,2.7404580152671754,834,6,6
1739816981.3546772,1.4897021484375002,-8.8903125,4.493056640625,58.969465648854964,-9.213740458015268,1.5725190839694656,834,6,6
1739816981.3673925,1.3651611328125002,-8.6651806640625,4.818779296875,33.97709923664122,-5.061068702290076,-0.16793893129770993,834,6,6
1739816981.3800914,1.4298266601562502,-8.6651806640625,4.33738037109375,28.267175572519083,-7.229007633587786,3.618320610687023,834,6,6
1739816981.3927453,2.02858154296875,-8.90707763671875,4.224814453125,48.534351145038165,-8.908396946564885,3.6030534351145036,834,6,6
1739816981.4053962,1.02267333984375,-8.9046826171875,4.8618896484375,40.969465648854964,-9.16030534351145,3.3282442748091605,834,6,6
1739816981.4180477,1.40108642578125,-8.7801416015625,4.85949462890625,33.82442748091603,-5.480916030534351,2.198473282442748,834,6,6
1739816981.4307218,1.3483959960937502,-9.4794873046875,4.59604248046875,45.11450381679389,-8.992366412213741,3.366412213740458,843,6,6
1739816981.4433756,1.1256591796875,-8.8376220703125,5.2355126953125,48.587786259541986,-10.923664122137405,2.5343511450381677,843,6,6
1739816981.4560285,1.3747412109375001,-8.52626953125,5.2355126953125,38.06870229007634,-8.916030534351146,0.15267175572519084,843,6,6
1739816981.4687223,1.25738525390625,-8.353828125,5.5588403320312505,21.641221374045802,-9.038167938931299,-0.40458015267175573,843,6,6
1739816981.4814029,1.302890625,-8.34664306640625,5.42232421875,6.511450381679389,-8.687022900763358,-1.8778625954198473,843,6,6
1739816981.4940588,1.235830078125,-8.229287109375,5.5420751953125,-4.259541984732825,-6.175572519083969,-0.4580152671755725,843,6,6
1739816981.5067072,1.3867163085937502,-8.267607421875,5.5923706054687505,-20.954198473282442,-3.1526717557251906,2.145038167938931,843,6,6
1739816981.5193515,1.389111328125,-8.243657226562501,5.30975830078125,-31.083969465648856,1.3206106870229009,0.3969465648854962,843,6,6
1739816981.532016,1.2310400390625,-8.353828125,4.9002099609375005,-19.83206106870229,1.5267175572519085,2.5877862595419847,867,7,7
1739816981.5446732,1.1352392578125001,-9.230405273437501,5.11576171875,7.748091603053435,-4.854961832061068,2.8625954198473282,867,7,7
1739816981.5573535,1.0969189453125001,-8.6939208984375,5.431904296875,4.1603053435114505,-7.778625954198473,1.7633587786259541,867,7,7
1739816981.5700274,1.4322216796875,-8.54782470703125,5.6187158203125005,-6.305343511450381,-5.442748091603053,-0.6412213740458015,867,7,7
1739816981.5935457,1.3412109375,-8.55261474609375,5.38160888671875,-18.3206106870229,-4.473282442748092,-1.7099236641221374,867,7,7
1739816981.6062937,1.3100756835937502,-8.68194580078125,5.11815673828125,-18.458015267175572,-1.4427480916030535,-2.8473282442748094,867,7,7
1739816981.6189454,1.235830078125,-8.58375,5.23072265625,-20.366412213740457,0.31297709923664124,-1.7557251908396947,867,7,7
1739816981.6325674,1.504072265625,-8.4639990234375,5.355263671875,-21.137404580152673,0.732824427480916,-0.5114503816793893,867,7,7
1739816981.645373,1.312470703125,-8.3202978515625,5.42232421875,-34.29007633587786,1.3129770992366412,0.8549618320610687,867,7,7
1739816981.6585486,1.32205078125,-8.7993017578125,5.213957519531251,-35.10687022900763,-1.1068702290076335,1.9236641221374047,867,7,7
1739816981.6717663,1.3076806640625,-8.8855224609375,5.1732421875000005,-39.02290076335878,-1.8549618320610688,3.83206106870229,867,7,7
1739816981.6820216,1.3364208984375001,-8.8280419921875,4.9193701171875,-43.2442748091603,1.6488549618320612,2.145038167938931,867,7,7
1739816981.6894617,1.33402587890625,-8.71787109375,4.9002099609375005,-46.50381679389313,3.4885496183206106,4.854961832061068,867,7,7
1739816981.6968532,1.3148657226562501,-8.7609814453125,4.7756689453125,-47.25954198473283,5.221374045801527,6.0,867,7,7
1739816981.70422,1.312470703125,-8.80648681640625,4.7756689453125,-47.79389312977099,6.175572519083969,5.99236641221374,867,7,7
1739816981.7115529,1.1567944335937501,-8.677155761718751,4.75171875,-49.00763358778626,8.19083969465649,10.259541984732824,867,7,7
1739816981.7193859,1.3148657226562501,-8.7035009765625,4.77806396484375,-57.41984732824427,9.458015267175572,12.992366412213741,867,7,7
1739816981.7266366,1.1903247070312502,-8.68194580078125,4.8618896484375,-62.25954198473283,10.786259541984732,14.992366412213741,867,7,7
1739816981.7339303,1.1687695312500002,-8.6939208984375,4.8331494140625,-73.3969465648855,12.786259541984732,16.38167938931298,867,7,7
1739816981.7412546,1.2597802734375,-8.459208984375,5.05109619140625,-88.4885496183206,14.748091603053435,18.30534351145038,867,7,7
1739816981.748944,1.2022998046875,-8.310717773437501,4.818779296875,-114.63358778625954,15.183206106870228,21.0,867,7,7
1739816981.7568069,1.29570556640625,-8.919052734375,4.50024169921875,-127.83206106870229,18.763358778625953,17.900763358778626,867,7,7
1739816981.764148,1.3364208984375001,-8.98850830078125,4.42360107421875,-142.64885496183206,21.137404580152673,17.893129770992367,867,7,7
1739816981.7718458,1.1879296875,-9.10107421875,4.2870849609375,-153.44274809160305,22.404580152671755,16.03053435114504,867,7,7
1739816981.7778604,1.0011181640625,-9.050778808593751,3.9302270507812502,-161.8091603053435,22.083969465648856,15.404580152671755,867,7,7
1739816981.7830052,0.99872314453125,-9.553732910156251,3.6739599609375,-160.84732824427482,22.068702290076335,10.17557251908397,867,7,7
1739816981.788082,0.8454418945312501,-9.93214599609375,3.4105078125,-159.03053435114504,22.49618320610687,4.541984732824427,867,7,7
1739816981.7933745,0.8262817382812501,-9.529782714843751,3.7673657226562502,-159.90076335877862,20.114503816793892,3.900763358778626,867,7,7
1739816981.798503,0.8430468750000001,-9.61121337890625,3.32668212890625,-163.87786259541986,20.61832061068702,-0.4732824427480916,867,7,7
1739816981.803652,1.025068359375,-9.62558349609375,3.2452514648437503,-163.21374045801528,18.198473282442748,-3.099236641221374,867,7,7
1739816981.8094866,0.8047265625000001,-9.75970458984375,3.0823901367187503,-161.24427480916032,17.30534351145038,-4.564885496183206,867,7,7
1739816981.8146398,0.91250244140625,-9.5944482421875,3.1326855468750003,-164.3740458015267,18.83206106870229,-6.374045801526718,867,7,7
1739816981.820462,0.91250244140625,-9.72617431640625,2.7638525390625,-164.12213740458014,17.916030534351144,-9.358778625954198,867,7,7
1739816981.825598,0.833466796875,-10.09740234375,2.69918701171875,-161.15267175572518,16.236641221374047,-11.351145038167939,867,7,7
1739816981.8306785,0.93884765625,-9.79083984375,2.3471191406250003,-166.32824427480915,19.083969465648856,-15.564885496183207,867,7,7
1739816981.8357959,0.87897216796875,-9.64474365234375,2.51237548828125,-169.99236641221373,11.801526717557252,-13.51908396946565,867,7,7
1739816981.84088,0.97477294921875,-9.8626904296875,2.2441333007812503,-170.00763358778627,10.664122137404581,-14.244274809160306,867,7,7
1739816981.8462012,0.81191162109375,-9.68306396484375,2.19623291015625,-167.27480916030535,9.435114503816793,-13.244274809160306,867,7,7
1739816981.8512356,1.0011181640625,-9.941726074218751,2.0046313476562503,-165.65648854961833,9.335877862595419,-14.67175572519084,867,7,7
1739816981.8562531,0.97716796875,-9.6998291015625,2.01900146484375,-170.25190839694656,11.129770992366412,-16.541984732824428,867,7,7
1739816981.8613324,1.09452392578125,-9.52499267578125,2.0908520507812502,-178.1145038167939,8.854961832061068,-16.671755725190838,867,7,7
1739816981.8663733,1.1352392578125001,-9.5944482421875,1.55197265625,-184.4198473282443,9.900763358778626,-16.51145038167939,867,7,7
1739816981.871422,1.20948486328125,-9.441166992187501,1.8106347656250001,-195.57251908396947,6.320610687022901,-15.969465648854962,867,7,7
1739816981.8764558,1.1927197265625,-9.685458984375,1.2765454101562501,-197.5801526717557,9.381679389312977,-16.633587786259543,867,7,7
1739816981.8814738,1.025068359375,-9.742939453125,1.08015380859375,-200.1908396946565,13.290076335877863,-15.129770992366412,867,7,7
1739816981.8865008,1.10410400390625,-9.86508544921875,0.8190966796875,-199.3587786259542,12.061068702290076,-16.69465648854962,867,7,7
1739816981.891521,0.9819580078125001,-10.193203125,0.37122802734375004,-170.14503816793894,5.519083969465649,3.7480916030534353,867,7,7
1739816981.896571,1.4729370117187501,-10.2075732421875,0.5867797851562501,-183.44274809160305,12.114503816793894,-0.5801526717557252,867,7,7
1739816981.901633,1.16637451171875,-9.79083984375,0.5987548828125,-195.64885496183206,20.045801526717558,-3.0610687022900764,867,7,7
1739816981.9067485,1.1639794921875,-9.74533447265625,0.99393310546875,-207.61832061068702,20.297709923664122,-2.1755725190839694,867,7,7
1739816981.9118779,1.1112890625,-9.642348632812501,0.48379394531250003,-227.87786259541986,18.53435114503817,-5.076335877862595,867,7,7
1739816981.9170105,1.0202783203125,-9.5944482421875,-0.09101074218750001,-243.75572519083968,25.068702290076335,-8.351145038167939,867,7,7
1739816981.9220428,1.302890625,-9.72617431640625,-0.49337402343750003,-250.13740458015266,22.671755725190838,-10.16030534351145,867,7,7
1739816981.9270647,0.9843530273437501,-9.89382568359375,-0.34248779296875004,-250.13740458015266,25.671755725190838,-14.648854961832061,867,7,7
1739816981.93209,1.22385498046875,-9.702224121093751,-0.37601806640625,-250.13740458015266,16.480916030534353,-7.083969465648855,867,7,7
1739816981.9371166,1.0705737304687502,-19.493063964843753,-3.9206469726562503,-125.19083969465649,-20.916030534351144,-10.541984732824428,867,7,7
1739816981.9424417,2.6776318359375,-9.4986474609375,-1.76991943359375,-111.55725190839695,-10.748091603053435,-11.641221374045802,867,7,7
1739816981.947466,1.02746337890625,-9.7716796875,-1.1136840820312501,-112.26717557251908,-7.0458015267175576,-10.80916030534351,867,7,7
1739816981.9525104,1.1927197265625,-9.60642333984375,-0.24908203125,-127.0381679389313,-11.641221374045802,-3.946564885496183,867,7,7
1739816981.9576,1.3555810546875,-9.6040283203125,-0.8669970703125001,-148.72519083969465,-12.251908396946565,-1.8778625954198473,867,7,7
1739816981.9626298,1.0921289062500001,-9.78365478515625,-0.6442602539062501,-156.01526717557252,-12.877862595419847,-5.893129770992366,867,7,7
1739816981.9676661,1.02267333984375,-9.78844482421875,-1.6621435546875,-180.65648854961833,-14.236641221374045,-9.83206106870229,867,7,7
1739816981.9727073,1.04662353515625,-9.1537646484375,-0.6562353515625,-250.13740458015266,-24.801526717557252,3.8091603053435112,867,7,7
1739816981.9777374,1.5831079101562502,-9.8339501953125,-1.49688720703125,-233.59541984732823,-21.65648854961832,-2.801526717557252,867,7,7
1739816981.9827638,1.1543994140625,-9.23280029296875,-2.50279541015625,-220.81679389312978,-24.801526717557252,-3.816793893129771,867,7,7
1739816981.9877825,0.95082275390625,-8.931027832031251,-4.40444091796875,-247.09923664122138,-13.145038167938932,-8.221374045801527,867,7,7
1739816981.992821,1.2597802734375,-9.378896484375,-2.4333398437500002,-224.12213740458014,-3.8244274809160306,-6.358778625954199,867,7,7
1739816981.9978523,0.97716796875,-9.62558349609375,-2.2944287109375003,-203.8091603053435,-12.114503816793894,-4.862595419847328,867,7,7
1739816982.0028777,1.1543994140625,-8.94779296875,-3.75299560546875,-207.73282442748092,-4.465648854961832,-7.526717557251908,867,7,7
1739816982.0079021,1.08015380859375,-9.41482177734375,-2.86683837890625,-202.17557251908397,-9.580152671755725,-7.625954198473282,867,7,7
1739816982.012928,1.1831396484375,-8.871152343750001,-3.25483154296875,-207.1679389312977,-10.67175572519084,-8.122137404580153,867,7,7
1739816982.017952,1.140029296875,-9.216035156250001,-2.9961694335937503,-205.94656488549617,-9.053435114503817,-6.0458015267175576,867,7,7
1739816982.022978,1.0921289062500001,-8.80648681640625,-3.324287109375,-226.8854961832061,-11.282442748091603,-6.106870229007634,867,7,7
1739816982.0280018,1.28612548828125,-8.48076416015625,-3.5110986328125002,-250.13740458015266,-8.312977099236642,-11.068702290076336,867,7,7
1739816982.0330272,1.1903247070312502,-9.02682861328125,-3.67635498046875,-250.13740458015266,-7.221374045801527,-13.32824427480916,867,7,7
1739816982.038051,1.04662353515625,-8.83043701171875,-3.9134619140625,-250.13740458015266,-3.145038167938931,-20.206106870229007,867,7,7
1739816982.0430746,1.20948486328125,-8.48076416015625,-3.70030517578125,-250.13740458015266,-10.564885496183207,-19.572519083969464,867,7,7
1739816982.0481079,1.3915063476562501,-9.21364013671875,-4.342170410156251,-248.76335877862596,-10.854961832061068,-16.12213740458015,867,7,7
1739816982.053133,1.0322534179687501,-8.370593261718751,-5.2858081054687505,-240.4351145038168,-6.396946564885496,-17.30534351145038,867,7,7
1739816982.0581572,1.21906494140625,-7.75986328125,-5.79355224609375,-244.68702290076337,-2.49618320610687,-25.213740458015266,867,7,7
1739816982.0631819,1.05141357421875,-9.290280761718751,-4.51940185546875,-229.90076335877862,-4.137404580152672,-16.69465648854962,867,7,7
1739816982.0683975,1.1112890625,-8.52626953125,-4.948110351562501,-224.76335877862596,-4.343511450381679,-19.091603053435115,867,7,7
1739816982.0734305,1.32923583984375,-8.04008056640625,-5.62111083984375,-227.85496183206106,-9.488549618320612,-17.0381679389313,867,7,7
1739816982.0784667,0.9580078125,-8.229287109375,-5.5564453125,-219.65648854961833,-7.206106870229007,-19.114503816793892,867,7,7
1739816982.083488,1.274150390625,-7.6305322265625,-5.853427734375,-222.76335877862596,-8.679389312977099,-20.984732824427482,867,7,7
1739816982.0885074,1.3268408203125002,-7.52754638671875,-6.052214355468751,-231.6030534351145,-1.984732824427481,-25.00763358778626,867,7,7
1739816982.0935338,0.9005273437500001,-8.401728515625,-5.46782958984375,-216.03053435114504,-8.34351145038168,-22.061068702290076,867,7,7
1739816982.0985584,1.6860937500000002,-7.0820727539062505,-6.4330224609375,-216.95419847328245,-9.702290076335878,-21.114503816793892,867,7,7
1739816982.1035838,1.4082714843750002,-7.2018237304687505,-6.571933593750001,-221.01526717557252,-5.404580152671755,-25.099236641221374,867,7,7
1739816982.1086187,1.7507592773437501,-6.524033203125001,-6.617438964843751,-221.41221374045801,-12.007633587786259,-15.946564885496183,867,7,7
1739816982.1136453,0.75922119140625,-6.87849609375,-6.98148193359375,-216.61068702290078,-5.442748091603053,-19.740458015267176,867,7,7
1739816982.1186695,1.2022998046875,-6.792275390625,-6.8545458984375,-210.41221374045801,-9.091603053435115,-15.709923664122137,867,7,7
1739816982.1236954,0.6753955078125,-7.03177734375,-6.9407666015625,-202.91603053435114,-5.870229007633588,-20.099236641221374,867,7,7
1739816982.1287205,0.9220825195312501,-6.78030029296875,-6.8545458984375,-198.8854961832061,-11.50381679389313,-23.977099236641223,867,7,7
1739816982.1337445,1.67890869140625,-6.753955078125,-6.9790869140625,-192.17557251908397,-12.389312977099237,-22.12213740458015,867,7,7
1739816982.138767,1.1112890625,-6.624624023437501,-7.0892578125000005,-188.3969465648855,-11.251908396946565,-22.68702290076336,867,7,7
1739816982.1439395,1.36276611328125,-6.1575952148437505,-7.3910302734375,-190.06870229007635,-6.251908396946565,-26.65648854961832,867,7,7
1739816982.1489553,1.78189453125,-6.19591552734375,-7.436535644531251,-185.81679389312978,-10.358778625954198,-21.16793893129771,867,7,7
1739816982.1539726,1.3076806640625,-6.112089843750001,-7.51796630859375,-178.5267175572519,-8.16793893129771,-19.977099236641223,867,7,7
1739816982.1590106,1.71722900390625,-5.6522460937500005,-7.8077636718750005,-176.9618320610687,-4.396946564885496,-19.419847328244273,867,7,7
1739816982.164036,1.561552734375,-5.834267578125,-7.8125537109375,-173.22137404580153,-7.00763358778626,-20.541984732824428,867,7,7
1739816982.1690624,1.868115234375,-5.42232421875,-7.874824218750001,-172.54198473282443,-6.061068702290076,-16.770992366412212,867,7,7
1739816982.1740873,1.40587646484375,-5.546865234375001,-8.04487060546875,-168.54198473282443,-7.809160305343512,-15.65648854961832,867,7,7
1739816982.1791124,1.09452392578125,-5.6474560546875,-7.95864990234375,-163.3053435114504,-7.343511450381679,-13.061068702290076,867,7,7
1739816982.1841369,0.9220825195312501,-5.2546728515625,-8.18857177734375,-165.14503816793894,-2.969465648854962,-16.793893129770993,867,7,7
1739816982.189161,1.7555493164062501,-4.92176513671875,-7.8987744140625,-162.78625954198472,-10.061068702290076,-14.206106870229007,867,7,7
1739816982.1941848,1.1735595703125001,-5.367238769531251,-7.862849121093751,-159.9618320610687,-7.267175572519084,-12.091603053435115,867,7,7
1739816982.1992083,1.5543676757812501,-5.010380859375,-8.1957568359375,-167.8854961832061,-4.068702290076335,-16.72519083969466,867,7,7
1739816982.2042325,1.5663427734375002,-5.0151708984375,-7.88679931640625,-165.08396946564886,-11.114503816793894,-18.022900763358777,867,7,7
1739816982.209262,1.2789404296875,-4.967270507812501,-8.272397460937501,-168.98473282442748,-3.450381679389313,-25.015267175572518,867,7,7
1739816982.2142866,1.43701171875,-4.7900390625,-8.17420166015625,-165.41221374045801,-8.15267175572519,-20.099236641221374,867,7,7
1739816982.2193046,1.5878979492187502,-4.6271777343750005,-8.32748291015625,-165.3053435114504,-6.061068702290076,-16.893129770992367,867,7,7
1739816982.2243268,1.20469482421875,-4.49066162109375,-8.507109375,-165.8854961832061,-3.236641221374046,-20.137404580152673,867,7,7
1739816982.2293503,1.82021484375,-3.9877075195312504,-8.5454296875,-164.4885496183206,-8.83969465648855,-13.687022900763358,867,7,7
1739816982.2343724,0.814306640625,-4.0475830078125,-9.513017578125,-152.61068702290078,-0.9847328244274809,-6.961832061068702,867,7,7
1739816982.2393997,1.7890795898437502,-2.941083984375,-9.596843261718751,-120.83206106870229,-11.290076335877863,-6.816793893129771,867,7,7
1739816982.2444224,1.140029296875,-3.77215576171875,-8.423283691406251,-137.91603053435114,-3.7480916030534353,-6.312977099236641,867,7,7
1739816982.2494478,1.08973388671875,-3.9901025390625002,-8.555009765625,-138.04580152671755,-3.9923664122137406,-7.366412213740458,867,7,7
1739816982.2544837,1.42024658203125,-3.23088134765625,-9.034013671875,-144.4198473282443,-5.122137404580153,-4.709923664122138,867,7,7
1739816982.259509,0.9723779296875,-4.57927734375,-8.863967285156251,-138.12213740458014,-0.3816793893129771,-8.213740458015268,867,7,7
1739816982.264533,1.4897021484375002,-3.3458422851562504,-8.94779296875,-131.51908396946564,-5.374045801526718,-4.206106870229007,867,7,7
1739816982.2695746,1.8633251953125,-2.05013671875,-9.28070068359375,-132.76335877862596,-4.893129770992366,-0.07633587786259542,867,7,7
1739816982.2745883,1.60705810546875,-2.5243505859375,-9.0867041015625,-127.43511450381679,0.7633587786259542,-6.305343511450381,867,7,7
1739816982.2796025,1.6741186523437501,-3.7817358398437504,-9.043593750000001,-115.8473282442748,-5.572519083969466,-7.099236641221374,867,7,7
1739816982.2846248,1.4346166992187501,-4.076323242187501,-9.3118359375,-102.91603053435115,-5.519083969465649,-7.3816793893129775,867,7,7
1739816982.2896483,1.274150390625,-3.7314404296875003,-9.3118359375,-93.61832061068702,-2.351145038167939,-3.572519083969466,867,7,7
1739816982.2946708,1.02746337890625,-3.5589990234375,-9.3166259765625,-85.90076335877863,-3.5877862595419847,-5.358778625954199,867,7,7
1739816982.2996943,1.4801220703125,-3.1159204101562503,-9.244775390625,-74.03053435114504,-5.0534351145038165,-3.053435114503817,867,7,7
1739816982.3047147,1.0873388671875,-3.4679882812500002,-9.18010986328125,-60.961832061068705,-4.595419847328245,-5.206106870229007,867,7,7
1739816982.3097496,1.6693286132812502,-2.82851806640625,-9.3836865234375,-51.47328244274809,-7.0534351145038165,-3.236641221374046,867,7,7
1739816982.3147743,1.3316308593750001,-2.9506640625,-9.48667236328125,-43.69465648854962,-0.4122137404580153,-3.435114503816794,867,7,7
1739816982.3198025,1.3962963867187501,-3.13029052734375,-9.2878857421875,-38.06870229007634,-0.6641221374045801,-6.900763358778626,867,7,7
1739816982.324827,1.504072265625,-2.6369165039062503,-9.42440185546875,-33.80152671755725,-0.6717557251908397,-4.267175572519084,867,7,7
1739816982.3298492,1.49209716796875,-2.8093579101562502,-9.206455078125,-30.435114503816795,-1.4961832061068703,-2.801526717557252,867,7,7
1739816982.3348718,1.55197265625,-2.3471191406250003,-9.18968994140625,-34.87022900763359,5.519083969465649,-7.435114503816794,867,7,7
1739816982.339933,1.76033935546875,-2.42136474609375,-9.117839355468751,-32.70229007633588,-0.0916030534351145,-7.702290076335878,867,7,7
1739816982.3449492,1.68369873046875,-2.2656884765625,-9.314230957031251,-35.19847328244275,3.549618320610687,-8.534351145038167,867,7,7
1739816982.3499582,1.77949951171875,-2.1339624023437502,-9.261540527343751,-37.725190839694655,1.2061068702290076,-6.8396946564885495,867,7,7
1739816982.3549738,1.5280224609375002,-2.17228271484375,-9.091494140625,-37.93893129770992,1.8396946564885497,-2.114503816793893,867,7,7
1739816982.3599951,1.3483959960937502,-2.375859375,-9.177714843750001,-43.900763358778626,7.366412213740458,-4.877862595419847,867,7,7
1739816982.365016,1.47533203125,-2.94826904296875,-8.983718261718751,-42.36641221374046,1.6641221374045803,-1.9618320610687023,867,7,7
1739816982.3700364,1.64537841796875,-2.2010229492187503,-9.177714843750001,-44.02290076335878,-0.2748091603053435,-3.114503816793893,867,7,7
1739816982.3750577,1.45856689453125,-2.4908203125,-9.21364013671875,-49.213740458015266,4.0458015267175576,-4.366412213740458,867,7,7
1739816982.380078,1.29570556640625,-3.00095947265625,-9.13939453125,-48.93129770992366,1.015267175572519,-4.32824427480916,867,7,7
1739816982.3850992,1.39869140625,-3.2021411132812503,-9.342971191406251,-46.587786259541986,2.099236641221374,-3.519083969465649,867,7,7
1739816982.3901188,1.33402587890625,-2.385439453125,-9.2399853515625,-45.83206106870229,0.5572519083969466,-5.122137404580153,867,7,7
1739816982.3951392,1.28133544921875,-2.2944287109375003,-9.30944091796875,-43.038167938931295,2.267175572519084,-2.1526717557251906,867,7,7
1739816982.4001675,1.56873779296875,-2.63212646484375,-9.1825048828125,-40.01526717557252,2.2290076335877864,-5.183206106870229,867,7,7
1739816982.405189,1.32444580078125,-2.7255322265625,-9.177714843750001,-33.35114503816794,-1.0305343511450382,-0.16030534351145037,867,7,7
1739816982.41021,1.350791015625,-2.70158203125,-9.448352050781251,-32.80916030534351,4.870229007633588,-2.931297709923664,867,7,7
1739816982.41523,1.42024658203125,-2.62733642578125,-9.22801025390625,-28.732824427480917,-1.0229007633587786,-1.083969465648855,867,7,7
1739816982.4202502,1.25738525390625,-2.39501953125,-9.34776123046875,-24.366412213740457,0.08396946564885496,4.931297709923665,867,7,7
1739816982.4252708,1.1735595703125001,-2.7231372070312503,-9.201665039062501,-18.68702290076336,-5.595419847328245,2.7099236641221376,867,7,7
1739816982.4302914,1.580712890625,-2.327958984375,-9.374106445312501,-17.083969465648856,-2.2595419847328246,5.847328244274809,867,7,7
1739816982.4353116,1.53041748046875,-2.6632617187500003,-9.340576171875,-16.47328244274809,-1.381679389312977,5.770992366412214,867,7,7
1739816982.4403322,1.6813037109375002,-2.2465283203125,-9.208850097656251,-19.083969465648856,-1.0916030534351144,4.091603053435114,867,7,7
1739816982.4453535,1.5280224609375002,-1.1951147460937501,-9.45793212890625,-22.946564885496183,1.3740458015267176,4.763358778625954,867,7,7
1739816982.4503736,1.580712890625,-2.9961694335937503,-9.340576171875,-19.450381679389313,2.145038167938931,3.2290076335877864,867,7,7
1739816982.4553936,1.5950830078125,-2.0142114257812502,-9.342971191406251,-17.572519083969464,-0.35877862595419846,3.801526717557252,867,7,7
1739816982.460414,1.55197265625,-2.1698876953125,-9.2878857421875,-15.870229007633588,3.8931297709923665,2.50381679389313,867,7,7
1739816982.4654386,1.5160473632812501,-2.8692333984375002,-9.28549072265625,-12.358778625954198,3.145038167938931,1.2213740458015268,867,7,7
1739816982.4705515,1.48730712890625,-1.9351757812500001,-9.3070458984375,-14.01526717557252,2.5801526717557253,1.9312977099236641,867,7,7
1739816982.4755642,1.60226806640625,-2.45968505859375,-9.275910644531251,-10.099236641221374,0.5648854961832062,1.2748091603053435,867,7,7
1739816982.4805856,1.48251708984375,-2.9626391601562503,-9.268725585937501,-5.038167938931298,-0.29770992366412213,0.22137404580152673,867,7,7
1739816982.485599,1.59747802734375,-2.2010229492187503,-9.388476562500001,-4.1603053435114505,-0.16793893129770993,0.0916030534351145,867,7,7
1739816982.4906201,1.5232324218750002,-2.28245361328125,-9.29267578125,-2.854961832061069,-0.5190839694656488,-0.09923664122137404,867,7,7
1739816982.4956408,1.6621435546875,-2.26329345703125,-9.297465820312501,-1.9618320610687023,-0.3816793893129771,-1.9389312977099236,867,7,7
1739816982.5006618,1.48251708984375,-2.3543041992187503,-9.283095703125001,-0.35877862595419846,-0.7938931297709924,-0.25190839694656486,867,7,7
1739816982.5056825,1.561552734375,-2.22497314453125,-9.244775390625,0.6412213740458015,-0.9847328244274809,-0.22900763358778625,867,7,7
1739816982.5107028,1.5376025390625,-2.2273681640625003,-9.3262060546875,1.2671755725190839,-0.8244274809160306,-0.37404580152671757,867,7,7
1739816982.5157228,1.5088623046875,-2.1842578125000003,-9.2351953125,1.381679389312977,-1.015267175572519,-0.06870229007633588,867,7,7
1739816982.5207412,1.561552734375,-2.2656884765625,-9.283095703125001,1.0305343511450382,-0.8854961832061069,-0.31297709923664124,867,7,7
1739816982.5257616,1.5376025390625,-2.24173828125,-9.196875,0.8854961832061069,-0.6030534351145038,-0.6412213740458015,867,7,7
1739816982.530781,1.51365234375,-2.29203369140625,-9.208850097656251,0.4961832061068702,-0.45038167938931295,-0.648854961832061,867,7,7
1739816982.5358014,1.53041748046875,-2.32556396484375,-9.194479980468751,-0.2824427480916031,-0.5419847328244275,-0.648854961832061,867,7,7
1739816982.5410297,1.53520751953125,-2.289638671875,-9.21364013671875,-0.6717557251908397,-0.48091603053435117,-0.7480916030534351,867,7,7
1739816982.5460851,1.5711328125000001,-2.3135888671875002,-9.230405273437501,-0.22900763358778625,-0.4732824427480916,-0.4580152671755725,867,7,7
1739816982.5511084,1.5495776367187502,-2.32556396484375,-9.206455078125,0.15267175572519084,-0.3893129770992366,-0.4732824427480916,867,7,7
1739816982.5561357,1.5543676757812501,-2.3207739257812503,-9.2495654296875,0.6717557251908397,-0.26717557251908397,-0.33587786259541985,867,7,7
1739816982.5611799,1.504072265625,-2.366279296875,-9.28070068359375,1.0916030534351144,-0.05343511450381679,-0.6564885496183206,867,7,7
1739816982.566211,1.60226806640625,-2.41178466796875,-9.3166259765625,1.5954198473282444,0.5419847328244275,-0.4198473282442748,867,7,7
1739816982.571236,1.5232324218750002,-2.3231689453125,-9.263935546875,1.6030534351145038,0.6335877862595419,-0.48854961832061067,867,7,7
1739816982.5762591,1.57831787109375,-2.3135888671875002,-9.18489990234375,3.1297709923664123,0.9770992366412213,-0.5190839694656488,867,7,7
1739816982.581305,1.5280224609375002,-2.36867431640625,-9.2591455078125,4.351145038167939,1.0610687022900764,-0.5419847328244275,867,7,7
1739816982.586329,1.60226806640625,-2.4141796875000003,-9.314230957031251,5.404580152671755,1.1526717557251909,-0.3816793893129771,867,7,7
1739816982.5913522,1.60705810546875,-2.41657470703125,-9.223220214843751,6.450381679389313,1.465648854961832,-0.648854961832061,867,7,7
1739816982.5963752,1.6046630859375002,-2.33993408203125,-9.24238037109375,7.427480916030534,0.9007633587786259,-0.2900763358778626,867,7,7
1739816982.6013985,1.5495776367187502,-2.3734643554687502,-9.170529785156251,8.80916030534351,0.732824427480916,-0.3435114503816794,867,7,7
1739816982.6064217,1.59029296875,-2.4381298828125,-9.196875,10.114503816793894,0.8244274809160306,-0.366412213740458,867,7,7
1739816982.6114445,1.5280224609375002,-2.4572900390625003,-9.268725585937501,9.83206106870229,0.6793893129770993,1.9083969465648856,867,7,7
1739816982.616468,1.6046630859375002,-2.519560546875,-9.283095703125001,14.274809160305344,1.16793893129771,-0.35877862595419846,867,7,7
1739816982.6251416,1.56394775390625,-2.6369165039062503,-9.26633056640625,16.81679389312977,1.381679389312977,-1.1908396946564885,867,7,7
1739816982.6307256,1.5567626953125,-2.26329345703125,-9.36692138671875,22.198473282442748,1.4809160305343512,0.8320610687022901,867,7,7
1739816982.635926,1.68369873046875,-2.4501049804687502,-9.426796875,27.96946564885496,2.0916030534351147,0.9007633587786259,867,7,7
1739816982.6411135,1.580712890625,-2.81893798828125,-9.2112451171875,34.37404580152672,1.618320610687023,0.4961832061068702,867,7,7
1739816982.6463072,1.59747802734375,-2.49800537109375,-9.33818115234375,38.94656488549618,1.9389312977099236,1.2595419847328244,867,7,7
1739816982.651389,1.5280224609375002,-2.7638525390625,-9.3645263671875,45.732824427480914,2.183206106870229,0.10687022900763359,867,7,7
1739816982.6564653,1.6334033203125,-2.5147705078125,-9.5273876953125,52.57251908396947,1.9923664122137406,5.526717557251908,867,7,7
1739816982.6615565,1.76512939453125,-1.85614013671875,-12.125983886718751,91.0,19.49618320610687,24.908396946564885,867,7,7
1739816982.6668422,0.51013916015625,-2.692001953125,-12.082873535156251,197.3053435114504,15.091603053435115,20.72519083969466,867,7,7
1739816982.6719837,1.580712890625,-2.77582763671875,-9.59923828125,217.4351145038168,10.977099236641221,19.061068702290076,867,7,7
1739816982.6773894,1.69327880859375,-2.8261230468750003,-7.7454931640625,172.51908396946564,14.618320610687023,20.27480916030534,867,7,7
1739816982.6839242,1.2789404296875,-2.5914111328125,-6.07376953125,69.54961832061069,9.603053435114504,12.977099236641221,867,7,7
1739816982.6902304,1.61184814453125,-3.4248779296875003,-7.0078271484375,6.770992366412214,-0.8396946564885496,2.49618320610687,867,7,7
1739816982.6952543,1.6741186523437501,-4.51940185546875,-7.58023681640625,-20.251908396946565,-2.83206106870229,-3.351145038167939,867,7,7
1739816982.7002678,1.427431640625,-3.7841308593750003,-8.25563232421875,-37.93893129770992,-4.519083969465649,-5.244274809160306,867,7,7
1739816982.7052834,1.5878979492187502,-3.67635498046875,-8.902287597656251,-34.87022900763359,-4.748091603053435,-4.0,867,7,7
1739816982.7102962,1.6813037109375002,-3.30273193359375,-9.54415283203125,-15.648854961832061,-2.717557251908397,-1.099236641221374,867,7,7
1739816982.7153194,1.7244140625000002,-3.2428564453125,-9.762099609375001,2.6259541984732824,-0.11450381679389313,1.5419847328244274,867,7,7
1739816982.7203434,1.714833984375,-3.3099169921875,-9.3836865234375,17.297709923664122,1.6106870229007633,2.984732824427481,867,7,7
1739816982.7253673,1.6860937500000002,-3.39374267578125,-9.02682861328125,18.022900763358777,1.465648854961832,2.595419847328244,867,7,7
1739816982.7304046,1.6717236328125,-3.4344580078125,-8.3969384765625,8.778625954198473,0.42748091603053434,0.916030534351145,867,7,7
1739816982.7354345,1.638193359375,-3.42727294921875,-8.430468750000001,-3.618320610687023,-1.0076335877862594,-0.46564885496183206,867,7,7
1739816982.7405388,1.6334033203125,-3.4751733398437503,-8.56698486328125,-10.022900763358779,-1.8549618320610688,-1.6564885496183206,867,7,7
1739816982.7455556,1.62861328125,-3.50630859375,-8.91186767578125,-13.763358778625955,-2.618320610687023,-1.8702290076335877,867,7,7
1739816982.7505686,1.62142822265625,-3.4081127929687502,-9.034013671875,-10.435114503816793,-2.2595419847328246,-1.2748091603053435,867,7,7
1739816982.755589,1.8273999023437502,-3.5110986328125002,-9.117839355468751,-7.572519083969466,-1.5114503816793894,-0.5648854961832062,867,7,7
1739816982.7606134,1.8273999023437502,-3.3985327148437503,-9.196875,-1.0381679389312977,-0.9312977099236641,0.06870229007633588,867,7,7
1739816982.765637,1.5950830078125,-3.400927734375,-9.01245849609375,0.33587786259541985,-0.8091603053435115,0.08396946564885496,867,7,7
1739816982.770661,1.61184814453125,-3.50391357421875,-8.789721679687501,-0.9465648854961832,-1.1603053435114503,-0.22900763358778625,867,7,7
1739816982.775685,1.599873046875,-3.5015185546875003,-8.81606689453125,-3.885496183206107,-1.6870229007633588,-0.6793893129770993,867,7,7
1739816982.780709,1.6717236328125,-3.5302587890625,-8.7609814453125,-7.3893129770992365,-2.0839694656488548,-1.2595419847328244,867,7,7
1739816982.7881184,1.62861328125,-3.4919384765625003,-8.849597167968751,-8.98473282442748,-2.213740458015267,-1.2061068702290076,867,7,7
1739816982.793144,1.56394775390625,-3.4057177734375004,-8.96455810546875,-8.145038167938932,-1.8015267175572518,-1.1068702290076335,867,7,7
1739816982.7984161,1.80823974609375,-3.4536181640625,-8.784931640625,-6.5038167938931295,-1.8702290076335877,-0.732824427480916,867,7,7
1739816982.803433,1.65495849609375,-3.4871484375,-8.8519921875,-5.236641221374046,-1.5114503816793894,-0.6793893129770993,867,7,7
1739816982.8084488,1.6334033203125,-3.4847534179687503,-8.92144775390625,-4.984732824427481,-1.8091603053435115,-0.8244274809160306,867,7,7
1739816982.8134854,1.6621435546875,-3.49912353515625,-8.80648681640625,-5.67175572519084,-1.8015267175572518,-1.0610687022900764,867,7,7
1739816982.8185096,1.6525634765625001,-3.439248046875,-8.8903125,-6.748091603053435,-1.8702290076335877,-1.183206106870229,867,7,7
1739816982.8235338,1.6717236328125,-3.4847534179687503,-8.871152343750001,-7.740458015267175,-1.8549618320610688,-1.4274809160305344,867,7,7
1739816982.8285573,1.82021484375,-3.47038330078125,-8.83283203125,-8.450381679389313,-2.122137404580153,-1.3053435114503817,867,7,7
1739816982.833581,1.6813037109375002,-3.43685302734375,-8.863967285156251,-8.045801526717558,-2.1374045801526718,-1.2290076335877862,867,7,7
1739816982.8386042,1.6693286132812502,-3.4344580078125,-8.82564697265625,-9.717557251908397,-1.9770992366412214,-1.3740458015267176,867,7,7
1739816982.8436277,1.6717236328125,-3.6643798828125003,-8.7705615234375,-7.312977099236641,-1.7786259541984732,-1.16793893129771,867,7,7
1739816982.8486514,1.638193359375,-3.45601318359375,-8.863967285156251,-6.916030534351145,-1.9236641221374047,-1.16793893129771,867,7,7
