timestamp,accel_x_m_s2,accel_y_m_s2,accel_z_m_s2,gyro_x_dps,gyro_y_dps,gyro_z_dps,fsr1_value,fsr2_value,fsr3_value,flex1_value,flex2_value,flex3_value,flex4_value,flex5_value
1740329988.6912177,2.12917236328125,-0.38320312500000003,-9.381291503906251,-6.923664122137405,-1.916030534351145,-1.2366412213740459,939,0,0,10,7,7,6,577
1740329988.6969135,2.0812719726562503,-0.35206787109375004,-9.441166992187501,-6.9541984732824424,-2.2519083969465647,-1.2900763358778626,939,0,0,10,7,7,6,577
1740329988.7022839,2.0836669921875,-0.29219238281250004,-9.455537109375001,-7.122137404580153,-2.6412213740458017,-1.297709923664122,939,0,0,10,7,7,6,577
1740329988.7088203,2.06690185546875,-0.3400927734375,-9.560917968750001,-7.557251908396947,-2.9236641221374047,-1.4351145038167938,939,0,0,10,7,7,6,577
1740329988.7151728,2.11001220703125,-0.3448828125,-9.536967773437501,-8.099236641221374,-2.9160305343511452,-1.4351145038167938,939,0,0,10,7,7,6,577
1740329988.7218587,2.02379150390625,-0.45744873046875,-9.477092285156251,-8.0,-3.2442748091603053,-1.450381679389313,939,0,0,10,7,7,6,577
1740329988.727678,2.0980371093750003,-0.40236328125000004,-9.4794873046875,-8.076335877862595,-2.946564885496183,-1.4809160305343512,939,0,0,10,7,7,6,577
1740329988.734059,2.1028271484375,-0.38320312500000003,-9.4124267578125,-7.893129770992366,-2.6412213740458017,-1.2290076335877862,939,0,0,10,7,7,6,577
1740329988.7397742,2.1124072265625,-0.3592529296875,-9.398056640625,-7.625954198473282,-2.3969465648854964,-1.0458015267175573,939,0,0,10,7,7,6,577
1740329988.746436,2.0980371093750003,-0.33290771484375004,-9.37650146484375,-7.4961832061068705,-2.2519083969465647,-1.2366412213740459,939,0,0,10,7,7,6,577
1740329988.7522764,2.078876953125,-0.3400927734375,-9.417216796875001,-7.351145038167939,-3.877862595419847,-1.2671755725190839,939,0,0,10,7,7,6,577
1740329988.7584112,2.08845703125,-0.3065625,-9.402846679687501,-7.183206106870229,-1.8854961832061068,-1.1603053435114503,939,0,0,10,7,7,6,577
1740329988.764701,2.10043212890625,-0.41912841796875,-9.436376953125,-7.0,-1.9541984732824427,-1.0610687022900764,939,0,0,10,7,7,6,577
1740329988.7713385,2.06211181640625,-0.38559814453125,-9.417216796875001,-7.0458015267175576,-1.534351145038168,-1.1145038167938932,0,0,0,6,5,4,5,577
1740329988.7776887,2.11959228515625,-0.3400927734375,-9.402846679687501,-6.877862595419847,-1.3587786259541985,-1.183206106870229,0,0,0,6,5,4,5,577
1740329988.7857544,2.0812719726562503,-0.3113525390625,-9.42440185546875,-6.770992366412214,-1.1908396946564885,-1.0534351145038168,0,0,0,6,5,4,5,577
1740329988.791091,2.07169189453125,-0.3496728515625,-9.501042480468751,-6.66412213740458,-0.9465648854961832,-1.0610687022900764,0,0,0,6,5,4,5,577
1740329988.800985,2.1124072265625,-0.34248779296875004,-9.2208251953125,-6.32824427480916,-2.618320610687023,-1.3893129770992367,0,0,0,6,5,4,5,577
1740329988.8068023,2.07648193359375,-0.37362304687500003,-9.6183984375,-8.358778625954198,-3.045801526717557,-1.4580152671755726,0,0,0,6,5,4,5,577
1740329988.812826,2.0932470703125,-0.3688330078125,-9.43877197265625,-8.34351145038168,-2.6793893129770994,-1.6412213740458015,0,0,0,6,5,4,5,577
1740329988.8185716,2.12677734375,-0.32332763671875003,-9.2495654296875,-7.6106870229007635,-2.5877862595419847,-1.3740458015267176,0,0,0,6,5,4,5,577
1740329988.8243384,2.0261865234375,-0.3400927734375,-9.4220068359375,-7.480916030534351,-2.931297709923664,-1.4274809160305344,0,0,0,6,5,4,5,577
1740329988.833779,2.04295166015625,-0.3879931640625,-9.553732910156251,-8.122137404580153,-2.2442748091603053,-1.3893129770992367,0,0,0,6,5,4,5,577
1740329988.839732,1.9040405273437502,-0.3448828125,-9.335786132812501,-7.6106870229007635,-2.2900763358778624,-1.2366412213740459,0,0,0,6,5,4,5,577
1740329988.8458788,2.12677734375,-0.36643798828125,-9.254355468750001,-7.343511450381679,-3.877862595419847,-1.213740458015267,0,0,0,6,5,4,5,577
1740329988.8520591,2.11480224609375,-0.43349853515625003,-9.46751220703125,-7.633587786259542,-1.465648854961832,-1.0534351145038168,0,0,0,6,5,4,5,577
1740329988.8595424,2.0812719726562503,-0.3113525390625,-9.39087158203125,-7.190839694656488,-1.1068702290076335,-1.1374045801526718,0,0,0,6,5,4,5,577
1740329988.8650148,2.03337158203125,-0.335302734375,-9.469907226562501,-6.557251908396947,-3.9083969465648853,-1.3587786259541985,0,0,0,6,5,4,5,577
1740329988.872699,2.0836669921875,-0.42152343750000004,-9.2878857421875,-6.564885496183206,-2.5801526717557253,-1.0916030534351144,0,0,0,2,2,3,3,584
1740329988.8780375,2.0477416992187503,-0.41912841796875,-9.474697265625,-7.0534351145038165,-1.7404580152671756,-1.2671755725190839,0,0,0,2,2,3,3,584
1740329988.8872054,2.11959228515625,-0.4071533203125,-9.23280029296875,-6.969465648854962,-2.2061068702290076,-1.1755725190839694,0,0,0,2,2,3,3,584
1740329988.8939502,2.117197265625,-0.37362304687500003,-9.635163574218751,-7.061068702290076,-2.2442748091603053,-1.2061068702290076,0,0,0,2,2,3,3,584
1740329988.9033403,2.0908520507812502,-0.3592529296875,-9.374106445312501,-7.6183206106870225,-3.114503816793893,-1.4351145038167938,0,0,0,2,2,3,3,584
1740329988.9096112,2.11001220703125,-0.39278320312500004,-9.4315869140625,-9.709923664122137,-3.236641221374046,-1.3129770992366412,0,0,0,2,2,3,3,584
1740329988.9186125,2.1219873046875,-0.3879931640625,-9.47230224609375,-8.045801526717558,-2.984732824427481,-1.5572519083969465,0,0,0,2,2,3,3,584
1740329988.9239051,2.14354248046875,-0.30416748046875003,-9.48188232421875,-8.007633587786259,-2.9389312977099236,-1.4351145038167938,0,0,0,2,2,3,3,584
1740329988.9312637,1.99984130859375,-0.3688330078125,-9.5465478515625,-8.320610687022901,-3.0,-1.381679389312977,0,0,0,2,2,3,3,584
1740329988.9385824,2.07169189453125,-0.34727783203125,-9.381291503906251,-7.916030534351145,-2.9618320610687023,-1.2748091603053435,0,0,0,2,2,3,3,584
1740329988.9453049,2.14354248046875,-0.43828857421875,-9.398056640625,-7.740458015267175,-2.6946564885496183,-1.251908396946565,0,0,0,2,2,3,3,584
1740329988.9529722,2.0549267578125,-0.335302734375,-9.350156250000001,-7.717557251908397,-2.5343511450381677,-1.2671755725190839,0,0,0,2,2,3,3,584
1740329988.958491,2.10043212890625,-0.38559814453125,-9.3645263671875,-7.572519083969466,-2.030534351145038,-1.2366412213740459,0,0,0,2,2,3,3,584
1740329988.9640656,2.10043212890625,-0.18681152343750002,-9.48188232421875,-7.374045801526718,-1.5801526717557253,-1.213740458015267,0,0,0,2,2,3,3,584
1740329988.9740133,2.12917236328125,-0.30895751953125,-9.441166992187501,-6.931297709923665,-1.4274809160305344,-1.0763358778625953,0,0,0,4,4,4,3,582
1740329988.9811664,2.1411474609375003,-0.34727783203125,-9.5417578125,-7.00763358778626,-0.015267175572519083,-1.1068702290076335,0,0,0,4,4,4,3,582
1740329988.9872696,2.28245361328125,-0.3400927734375,-9.44356201171875,-7.458015267175573,-2.0916030534351147,-1.1297709923664123,0,0,0,4,4,4,3,582
1740329988.9935782,2.1339624023437502,-0.35685791015625,-9.42440185546875,-7.66412213740458,-2.2290076335877864,-1.3282442748091603,0,0,0,4,4,4,3,582
1740329989.008371,2.1219873046875,-0.354462890625,-9.41961181640625,-7.885496183206107,-3.0916030534351147,-1.4045801526717556,0,0,0,4,4,4,3,582
1740329989.0164971,2.0453466796875,-0.39517822265625,-9.433981933593751,-8.01526717557252,-2.877862595419847,-1.4122137404580153,0,0,0,4,4,4,3,582
1740329989.0226893,2.117197265625,-0.32332763671875003,-9.3645263671875,-8.022900763358779,-3.122137404580153,-1.4198473282442747,0,0,0,4,4,4,3,582
1740329989.0282285,2.1028271484375,-0.37122802734375004,-9.45793212890625,-7.770992366412214,-3.1068702290076335,-1.4885496183206106,0,0,0,4,4,4,3,582
1740329989.036425,2.11959228515625,-0.39038818359375,-9.4124267578125,-7.717557251908397,-3.030534351145038,-1.3053435114503817,0,0,0,4,4,4,3,582
1740329989.0425313,2.08845703125,-0.316142578125,-9.41961181640625,-7.9465648854961835,-2.8244274809160306,-1.5190839694656488,0,0,0,4,4,4,3,582
1740329989.0496898,2.1411474609375003,-0.34248779296875004,-9.43877197265625,-7.893129770992366,-2.7099236641221376,-1.2900763358778626,0,0,0,4,4,4,3,582
1740329989.0551934,2.12917236328125,-0.38320312500000003,-9.3166259765625,-7.4961832061068705,-2.3587786259541983,-1.3358778625954197,0,0,0,4,4,4,3,582
1740329989.0607874,2.00942138671875,-0.38080810546875005,-9.395661621093751,-7.5038167938931295,-2.213740458015267,-1.16793893129771,0,0,0,4,4,4,3,582
1740329989.0675027,2.10043212890625,-0.3448828125,-9.340576171875,-7.5038167938931295,-2.1755725190839694,-1.1984732824427482,0,0,0,4,4,4,3,582
1740329989.0728855,2.08845703125,-0.38559814453125,-9.44595703125,-7.3816793893129775,-1.7709923664122138,-1.3053435114503817,0,0,0,3,3,4,3,584
1740329989.0804145,2.11480224609375,-0.37362304687500003,-9.410031738281251,-7.083969465648855,-1.9770992366412214,-1.183206106870229,0,0,0,3,3,4,3,584
1740329989.0898802,2.1124072265625,-0.42391845703125003,-9.378896484375,-7.229007633587786,-2.5343511450381677,-1.1908396946564885,0,0,0,3,3,4,3,584
1740329989.0984285,2.11001220703125,-0.3784130859375,-9.493857421875001,-7.312977099236641,-2.549618320610687,-1.4045801526717556,0,0,0,3,3,4,3,584
1740329989.1067774,2.14354248046875,-0.3496728515625,-9.398056640625,-7.4961832061068705,-2.83206106870229,-1.3740458015267176,0,0,0,3,3,4,3,584
1740329989.1169567,2.14833251953125,-0.3113525390625,-9.44356201171875,-7.557251908396947,-2.763358778625954,-1.4045801526717556,0,0,0,3,3,4,3,584
1740329989.128449,2.0908520507812502,-0.36404296875000003,-9.206455078125,-7.603053435114504,-2.2595419847328246,-1.3129770992366412,0,0,0,3,3,4,3,584
1740329989.1392035,2.08845703125,-0.34727783203125,-9.4651171875,-7.374045801526718,-1.6870229007633588,-1.1145038167938932,0,0,0,3,3,4,3,584
1740329989.1488936,2.2537133789062502,-0.31374755859375003,-9.40524169921875,-6.778625954198473,-1.549618320610687,-1.1374045801526718,0,0,0,3,3,4,3,584
1740329989.1595352,2.05732177734375,-0.31374755859375003,-9.410031738281251,-6.9541984732824424,-1.213740458015267,-1.1145038167938932,0,0,0,3,3,4,3,584
1740329989.1682057,2.059716796875,-0.29458740234375,-9.36931640625,-6.7251908396946565,-1.4045801526717556,-1.083969465648855,0,0,0,3,3,4,3,584
1740329989.176286,2.0908520507812502,-0.31374755859375003,-9.40763671875,-6.5038167938931295,-1.6412213740458015,-1.083969465648855,0,0,0,3,4,4,4,591
1740329989.1826074,2.10043212890625,-0.40236328125000004,-9.410031738281251,-6.709923664122138,-1.8091603053435115,-0.9083969465648855,0,0,0,3,4,4,4,591
1740329989.1921504,2.0932470703125,-0.32572265625,-9.24238037109375,-7.183206106870229,-2.1755725190839694,-1.3893129770992367,0,0,0,3,4,4,4,591
1740329989.200366,2.14833251953125,-0.45984375,-9.37171142578125,-7.404580152671755,-2.633587786259542,-1.2213740458015268,0,0,0,3,4,4,4,591
1740329989.208948,2.13875244140625,-0.39517822265625,-9.455537109375001,-7.931297709923665,-2.7938931297709924,-1.534351145038168,0,0,0,3,4,4,4,591
1740329989.215892,2.0932470703125,-0.3784130859375,-9.5273876953125,-8.01526717557252,-3.045801526717557,-1.3358778625954197,0,0,0,3,4,4,4,591
1740329989.2231383,2.1243823242187503,-0.3592529296875,-9.42919189453125,-8.106870229007633,-3.1068702290076335,-1.282442748091603,0,0,0,3,4,4,4,591
1740329989.2289412,2.2944287109375003,-0.4167333984375,-9.3836865234375,-8.053435114503817,-2.969465648854962,-1.4351145038167938,0,0,0,3,4,4,4,591
1740329989.241757,2.059716796875,-0.4071533203125,-9.39087158203125,-8.038167938931299,-2.5114503816793894,-1.1908396946564885,0,0,0,3,4,4,4,591
1740329989.2479577,2.01181640625,-0.36643798828125,-9.35255126953125,-7.755725190839694,-2.2290076335877864,-1.2061068702290076,0,0,0,3,4,4,4,591
1740329989.2590258,2.26329345703125,-0.36643798828125,-9.448352050781251,-7.351145038167939,-2.068702290076336,-1.1374045801526718,0,0,0,3,4,4,4,591
1740329989.2708032,2.07648193359375,-0.37362304687500003,-9.433981933593751,-7.641221374045801,-2.2748091603053435,-1.2595419847328244,0,0,0,3,4,4,4,591
1740329989.2797012,2.1411474609375003,-0.39038818359375,-9.522597656250001,-7.648854961832061,-2.4580152671755724,-1.2595419847328244,0,0,0,0,2,2,2,593
1740329989.2891545,2.1028271484375,-0.3879931640625,-9.5034375,-7.870229007633588,-2.633587786259542,-1.3893129770992367,0,0,0,0,2,2,2,593
1740329989.2998586,2.01900146484375,-0.43828857421875,-9.501042480468751,-9.732824427480915,-2.786259541984733,-1.1755725190839694,0,0,0,0,2,2,2,593
1740329989.3065233,2.12917236328125,-0.38080810546875005,-9.417216796875001,-7.564885496183206,-2.1755725190839694,-1.2061068702290076,0,0,0,0,2,2,2,593
1740329989.3154118,2.12917236328125,-0.38320312500000003,-9.42440185546875,-7.343511450381679,-0.007633587786259542,-1.297709923664122,0,0,0,0,2,2,2,593
1740329989.3238072,2.13875244140625,-0.39278320312500004,-9.575288085937501,-7.122137404580153,-1.7557251908396947,-1.1908396946564885,0,0,0,0,2,2,2,593
1740329989.3337183,2.117197265625,-0.34727783203125,-9.501042480468751,-7.343511450381679,-2.267175572519084,-1.1755725190839694,0,0,0,0,2,2,2,593
1740329989.3401592,2.1124072265625,-0.35206787109375004,-9.570498046875,-7.206106870229007,-2.4656488549618323,-1.2061068702290076,0,0,0,0,2,2,2,593
1740329989.3472555,2.16509765625,-0.38559814453125,-9.4124267578125,-7.32824427480916,-2.5419847328244276,-1.381679389312977,0,0,0,0,2,2,2,593
1740329989.3553703,2.0980371093750003,-0.3448828125,-9.455537109375001,-7.709923664122138,-2.49618320610687,-1.3206106870229009,0,0,0,0,2,2,2,593
1740329989.361097,2.11480224609375,-0.41194335937500004,-9.4220068359375,-7.702290076335878,-2.519083969465649,-1.3740458015267176,0,0,0,0,2,2,2,593
1740329989.3690069,2.1603076171875,-0.38559814453125,-9.48427734375,-9.740458015267176,-2.5114503816793894,-1.282442748091603,0,0,0,0,2,2,2,593
1740329989.37514,2.14833251953125,-0.39038818359375,-9.4220068359375,-7.641221374045801,-2.3435114503816794,-1.251908396946565,0,0,0,0,2,2,2,593
1740329989.3813093,2.1243823242187503,-0.3209326171875,-9.402846679687501,-7.320610687022901,-2.3053435114503817,-1.2748091603053435,0,0,0,2,2,2,3,586
1740329989.3880038,2.14354248046875,-0.37362304687500003,-9.474697265625,-7.290076335877862,-2.282442748091603,-1.1145038167938932,0,0,0,2,2,2,3,586
1740329989.3936622,2.12917236328125,-0.36164794921875004,-9.41961181640625,-7.366412213740458,-2.381679389312977,-1.1755725190839694,0,0,0,2,2,2,3,586
1740329989.4017408,2.136357421875,-0.39517822265625,-9.46751220703125,-7.625954198473282,-2.4122137404580153,-1.1145038167938932,0,0,0,2,2,2,3,586
1740329989.4090886,2.11959228515625,-0.3592529296875,-9.378896484375,-7.572519083969466,-2.2519083969465647,-1.3435114503816794,0,0,0,2,2,2,3,586
1740329989.417227,2.12917236328125,-0.36643798828125,-9.40524169921875,-7.465648854961832,-2.2442748091603053,-1.465648854961832,0,0,0,2,2,2,3,586
1740329989.423564,2.11959228515625,-0.3975732421875,-9.49625244140625,-7.687022900763359,-2.6259541984732824,-1.2213740458015268,0,0,0,2,2,2,3,586
1740329989.4325078,2.0980371093750003,-0.31374755859375003,-9.6183984375,-7.8396946564885495,-2.8931297709923665,-1.1755725190839694,0,0,0,2,2,2,3,586
1740329989.4383621,2.10043212890625,-0.37122802734375004,-9.410031738281251,-7.9465648854961835,-2.7557251908396947,-1.3511450381679388,0,0,0,2,2,2,3,586
1740329989.448907,2.07648193359375,-0.37362304687500003,-9.335786132812501,-7.961832061068702,-2.633587786259542,-1.3511450381679388,0,0,0,2,2,2,3,586
1740329989.4544697,2.1124072265625,-0.3975732421875,-9.44356201171875,-7.748091603053435,-2.732824427480916,-1.4274809160305344,0,0,0,2,2,2,3,586
1740329989.4614656,2.059716796875,-0.37362304687500003,-9.48667236328125,-7.824427480916031,-2.9618320610687023,-1.282442748091603,0,0,0,2,2,2,3,586
1740329989.467381,1.99984130859375,-0.30177246093750004,-9.477092285156251,-7.9541984732824424,-2.4198473282442747,-1.3358778625954197,0,0,0,2,2,2,3,586
1740329989.4775715,2.10043212890625,-0.34727783203125,-9.5034375,-7.862595419847328,-2.068702290076336,-1.251908396946565,0,0,0,2,2,2,2,585
1740329989.4867988,2.1124072265625,-0.37601806640625,-9.462722167968751,-7.7251908396946565,-2.5419847328244276,-1.3358778625954197,0,0,0,2,2,2,2,585
1740329989.4947767,2.12677734375,-0.38559814453125,-9.4890673828125,-7.916030534351145,-2.4885496183206106,-1.2442748091603053,0,0,0,2,2,2,2,585
1740329989.5018973,2.1028271484375,-0.32332763671875003,-9.469907226562501,-7.694656488549619,-2.33587786259542,-1.251908396946565,0,0,0,2,2,2,2,585
1740329989.509621,2.2369482421875,-0.39038818359375,-9.37650146484375,-7.648854961832061,-2.6946564885496183,-1.2290076335877862,0,0,0,2,2,2,2,585
1740329989.5158777,2.24892333984375,-0.34727783203125,-9.357341308593751,-7.587786259541985,-2.50381679389313,-1.3053435114503817,0,0,0,2,2,2,2,585
1740329989.5244968,2.06211181640625,-0.39038818359375,-9.402846679687501,-7.541984732824427,-2.4656488549618323,-1.2671755725190839,0,0,0,2,2,2,2,585
1740329989.5307019,2.10522216796875,-0.3879931640625,-9.42919189453125,-7.595419847328245,-2.1068702290076335,-1.2213740458015268,0,0,0,2,2,2,2,585
1740329989.5378456,2.1076171875000003,-0.34727783203125,-9.398056640625,-7.541984732824427,-2.068702290076336,-1.3587786259541985,0,0,0,2,2,2,2,585
1740329989.549997,2.11480224609375,-0.33290771484375004,-9.436376953125,-7.541984732824427,-2.198473282442748,-1.2290076335877862,0,0,0,2,2,2,2,585
1740329989.5685003,2.117197265625,-0.3592529296875,-9.359736328125,-7.366412213740458,-2.595419847328244,-1.3053435114503817,0,0,0,2,2,2,2,585
1740329989.5771568,2.1243823242187503,-0.3592529296875,-9.474697265625,-7.6106870229007635,-2.6717557251908395,-1.3358778625954197,0,0,0,2,2,3,4,587
1740329989.5836766,2.07648193359375,-0.32572265625,-9.45314208984375,-7.66412213740458,-2.8396946564885495,-1.5267175572519085,0,0,0,2,2,3,4,587
1740329989.5903745,2.2441333007812503,-0.44068359375000005,-9.4315869140625,-7.755725190839694,-2.6030534351145036,-1.282442748091603,0,0,0,2,2,3,4,587
1740329989.599606,2.13875244140625,-0.33769775390625,-9.36931640625,-7.549618320610687,-2.3587786259541983,-1.2366412213740459,0,0,0,2,2,3,4,587
1740329989.609455,2.0932470703125,-0.316142578125,-9.4651171875,-7.396946564885496,-2.183206106870229,-1.3282442748091603,0,0,0,2,2,3,4,587
1740329989.6165094,2.29682373046875,-0.3592529296875,-9.4315869140625,-7.694656488549619,-2.33587786259542,-1.183206106870229,0,0,0,2,2,3,4,587
1740329989.6240556,2.10043212890625,-0.19878662109375,-9.45314208984375,-7.549618320610687,-2.122137404580153,-1.3053435114503817,0,0,0,2,2,3,4,587
1740329989.6345582,2.07169189453125,-0.36643798828125,-9.206455078125,-7.564885496183206,-2.1526717557251906,-1.3282442748091603,0,0,0,2,2,3,4,587
1740329989.6411867,2.1219873046875,-0.335302734375,-9.4651171875,-7.5038167938931295,-2.236641221374046,-1.213740458015267,0,0,0,2,2,3,4,587
1740329989.6486504,2.10522216796875,-0.3496728515625,-9.381291503906251,-7.450381679389313,-2.1755725190839694,-1.381679389312977,0,0,0,2,2,3,4,587
1740329989.6545994,2.11959228515625,-0.40236328125000004,-9.4890673828125,-7.305343511450381,-2.4427480916030535,-1.2290076335877862,0,0,0,2,2,3,4,587
1740329989.6607862,2.13875244140625,-0.34727783203125,-9.374106445312501,-7.480916030534351,-2.5572519083969465,-1.2442748091603053,0,0,0,2,2,3,4,587
1740329989.6673965,2.117197265625,-0.3688330078125,-9.41482177734375,-7.694656488549619,-2.519083969465649,-1.2748091603053435,0,0,0,2,2,3,4,587
1740329989.6728997,2.11001220703125,-0.3592529296875,-9.417216796875001,-7.877862595419847,-2.6030534351145036,-1.4809160305343512,0,0,0,2,2,3,4,587
1740329989.6784449,2.1076171875000003,-0.34248779296875004,-9.340576171875,-7.519083969465649,-2.6030534351145036,-1.4351145038167938,0,0,0,2,3,3,4,592
1740329989.684195,2.002236328125,-0.3113525390625,-9.4986474609375,-7.6183206106870225,-2.3893129770992365,-1.16793893129771,0,0,0,2,3,3,4,592
1740329989.6958277,2.0932470703125,-0.35206787109375004,-9.4890673828125,-7.473282442748092,-2.4732824427480917,-1.1603053435114503,0,0,0,2,3,3,4,592
1740329989.7043366,2.11001220703125,-0.3975732421875,-9.395661621093751,-7.67175572519084,-2.50381679389313,-1.6259541984732824,0,0,0,2,3,3,4,592
1740329989.712192,2.09564208984375,-0.38080810546875005,-9.4890673828125,-7.534351145038168,-2.213740458015267,-1.3053435114503817,0,0,0,2,3,3,4,592
1740329989.7180884,2.0932470703125,-0.3975732421875,-9.48667236328125,-7.595419847328245,-2.450381679389313,-1.3587786259541985,0,0,0,2,3,3,4,592
1740329989.7234852,2.11480224609375,-0.36643798828125,-9.4124267578125,-7.458015267175573,-2.5343511450381677,-1.3129770992366412,0,0,0,2,3,3,4,592
1740329989.7307909,2.13875244140625,-0.37362304687500003,-9.410031738281251,-7.687022900763359,-2.7099236641221376,-1.4198473282442747,0,0,0,2,3,3,4,592
1740329989.7370086,2.08845703125,-0.45984375,-9.441166992187501,-7.908396946564886,-2.8396946564885495,-1.3893129770992367,0,0,0,2,3,3,4,592
1740329989.7421336,2.0812719726562503,-0.35206787109375004,-9.52020263671875,-8.045801526717558,-2.931297709923664,-1.3129770992366412,0,0,0,2,3,3,4,592
1740329989.7473118,2.0549267578125,-0.39278320312500004,-9.433981933593751,-7.854961832061068,-2.900763358778626,-1.3587786259541985,0,0,0,2,3,3,4,592
1740329989.7523582,2.10043212890625,-0.39038818359375,-9.41961181640625,-7.931297709923665,-2.7404580152671754,-1.4580152671755726,0,0,0,2,3,3,4,592
1740329989.757421,2.07648193359375,-0.39038818359375,-9.36931640625,-7.984732824427481,-2.8931297709923665,-1.4427480916030535,0,0,0,2,3,3,4,592
1740329989.7647946,2.0836669921875,-0.3879931640625,-9.441166992187501,-7.786259541984733,-2.687022900763359,-1.4045801526717556,0,0,0,2,3,3,4,592
1740329989.7708714,2.10043212890625,-0.3784130859375,-9.41482177734375,-7.641221374045801,-2.7099236641221376,-1.3358778625954197,0,0,0,2,3,3,4,592
1740329989.7763255,2.11959228515625,-0.3448828125,-9.402846679687501,-7.66412213740458,-2.381679389312977,-1.4732824427480915,0,0,0,2,3,3,4,592
1740329989.7818708,2.1076171875000003,-0.38080810546875005,-9.4315869140625,-7.793893129770993,-2.6259541984732824,-1.4274809160305344,0,0,0,2,3,3,3,590
1740329989.7870622,2.136357421875,-0.39038818359375,-9.48427734375,-7.702290076335878,-2.351145038167939,-1.1297709923664123,0,0,0,2,3,3,3,590
1740329989.7922292,2.136357421875,-0.39278320312500004,-9.441166992187501,-7.67175572519084,-2.4656488549618323,-1.1603053435114503,0,0,0,2,3,3,3,590
1740329989.7988641,2.1243823242187503,-0.335302734375,-9.359736328125,-7.3816793893129775,-2.2290076335877864,-1.16793893129771,0,0,0,2,3,3,3,590
1740329989.8043644,2.1411474609375003,-0.35685791015625,-9.357341308593751,-7.6106870229007635,-2.0839694656488548,-1.2671755725190839,0,0,0,2,3,3,3,590
1740329989.8121498,2.10043212890625,-0.3592529296875,-9.395661621093751,-7.564885496183206,-2.0381679389312977,-1.0610687022900764,0,0,0,2,3,3,3,590
1740329989.818244,2.0980371093750003,-0.19160156250000002,-9.22801025390625,-7.633587786259542,-2.2519083969465647,-1.16793893129771,0,0,0,2,3,3,3,590
1740329989.8234394,2.11001220703125,-0.3784130859375,-9.4603271484375,-7.534351145038168,-2.1526717557251906,-1.1984732824427482,0,0,0,2,3,3,3,590
1740329989.8286724,2.136357421875,-0.4550537109375,-9.49625244140625,-7.740458015267175,-2.480916030534351,-1.3053435114503817,0,0,0,2,3,3,3,590
1740329989.8337557,2.10043212890625,-0.39278320312500004,-9.45314208984375,-7.541984732824427,-2.618320610687023,-1.251908396946565,0,0,0,2,3,3,3,590
1740329989.839011,2.1411474609375003,-0.3448828125,-9.47230224609375,-7.427480916030534,-2.717557251908397,-1.3206106870229009,0,0,0,2,3,3,3,590
1740329989.8441274,2.0812719726562503,-0.37122802734375004,-9.3549462890625,-7.687022900763359,-2.5572519083969465,-1.3053435114503817,0,0,0,2,3,3,3,590
1740329989.8493915,2.13875244140625,-0.335302734375,-9.19927001953125,-7.435114503816794,-2.7480916030534353,-1.2366412213740459,0,0,0,2,3,3,3,590
1740329989.8545277,2.0932470703125,-0.30895751953125,-9.501042480468751,-7.778625954198473,-3.0839694656488548,-1.3740458015267176,0,0,0,2,3,3,3,590
1740329989.8597867,2.12677734375,-0.45265869140625004,-9.433981933593751,-7.99236641221374,-3.213740458015267,-1.4351145038167938,0,0,0,2,3,3,3,590
1740329989.864874,2.11001220703125,-0.38320312500000003,-9.48427734375,-8.01526717557252,-3.0,-1.3969465648854962,0,0,0,2,3,3,3,590
1740329989.8699791,2.1076171875000003,-0.36164794921875004,-9.22801025390625,-7.916030534351145,-2.984732824427481,-1.16793893129771,0,0,0,2,3,3,3,590
1740329989.8771987,2.1219873046875,-0.34248779296875004,-9.359736328125,-7.763358778625954,-3.381679389312977,-1.3282442748091603,0,0,0,2,3,3,3,590
1740329989.8844316,2.1028271484375,-0.38320312500000003,-9.374106445312501,-8.16793893129771,-3.519083969465649,-1.4122137404580153,0,0,0,2,3,3,4,593
1740329989.8894994,2.08606201171875,-0.3496728515625,-9.40763671875,-8.274809160305344,-3.114503816793893,-1.4732824427480915,0,0,0,2,3,3,4,593
1740329989.8945258,2.11480224609375,-0.3592529296875,-9.42919189453125,-8.221374045801527,-3.2748091603053435,-1.534351145038168,0,0,0,2,3,3,4,593
1740329989.8995836,2.1219873046875,-0.34727783203125,-9.40763671875,-8.473282442748092,-3.2213740458015265,-1.5572519083969465,0,0,0,2,3,3,4,593
1740329989.9046235,2.07648193359375,-0.37362304687500003,-9.42919189453125,-8.49618320610687,-2.885496183206107,-1.3969465648854962,0,0,0,2,3,3,4,593
1740329989.9096634,2.11001220703125,-0.37601806640625,-9.3836865234375,-8.435114503816793,-2.648854961832061,-1.5190839694656488,0,0,0,2,3,3,4,593
1740329989.914774,2.07648193359375,-0.41433837890625,-9.441166992187501,-8.290076335877863,-2.6717557251908395,-1.2671755725190839,0,0,0,2,3,3,4,593
1740329989.9200873,2.0812719726562503,-0.3592529296875,-9.508227539062501,-8.236641221374045,-2.7557251908396947,-1.2900763358778626,0,0,0,2,3,3,4,593
1740329989.925268,2.1219873046875,-0.38320312500000003,-9.45314208984375,-8.32824427480916,-2.6412213740458017,-1.4274809160305344,0,0,0,2,3,3,4,593
1740329989.9336534,2.08845703125,-0.29458740234375,-9.4890673828125,-8.770992366412214,-2.6564885496183206,-1.3893129770992367,0,0,0,2,3,3,4,593
1740329989.9394145,2.08845703125,-0.29937744140625,-9.3118359375,-7.625954198473282,-3.7099236641221376,-1.366412213740458,0,0,0,2,3,3,4,593
1740329989.9446187,2.1579125976562503,-0.35206787109375004,-9.580078125,-9.076335877862595,-3.633587786259542,-1.5114503816793894,0,0,0,2,3,3,4,593
1740329989.9498775,2.078876953125,-0.36404296875000003,-9.40524169921875,-9.267175572519085,-4.068702290076335,-1.5877862595419847,0,0,0,2,3,3,4,593
1740329989.9550376,2.1076171875000003,-0.45984375,-9.29507080078125,-9.51908396946565,-3.6717557251908395,-1.618320610687023,0,0,0,2,3,3,4,593
1740329989.9624536,2.14833251953125,-0.31374755859375003,-9.4507470703125,-8.290076335877863,-2.595419847328244,-1.4198473282442747,0,0,0,2,3,3,4,593
1740329989.9677432,2.0070263671875,-0.3400927734375,-9.4220068359375,-7.824427480916031,-3.49618320610687,-1.3969465648854962,0,0,0,2,3,3,4,593
1740329989.9729257,2.155517578125,-0.33290771484375004,-9.6183984375,-8.19083969465649,-3.2977099236641223,-1.3969465648854962,0,0,0,2,3,3,4,593
1740329989.9782202,2.11001220703125,-0.37122802734375004,-9.40763671875,-7.511450381679389,-4.404580152671755,-1.282442748091603,0,0,0,2,3,3,4,593
1740329989.983327,2.040556640625,-0.38080810546875005,-9.42440185546875,-8.13740458015267,-3.7022900763358777,-1.366412213740458,0,0,0,5,4,5,5,594
1740329989.9893434,2.11001220703125,-0.40954833984375,-9.3262060546875,-7.9465648854961835,-3.351145038167939,-1.3893129770992367,905,0,0,5,4,5,5,594
1740329989.9968765,2.1028271484375,-0.19878662109375,-9.378896484375,-7.969465648854962,-2.801526717557252,-1.3358778625954197,905,0,0,5,4,5,5,594
1740329990.002564,2.002236328125,-0.43349853515625003,-9.65432373046875,-8.297709923664122,-2.885496183206107,-1.3358778625954197,905,0,0,5,4,5,5,594
1740329990.0076542,2.0477416992187503,-0.36404296875000003,-9.40524169921875,-8.557251908396946,-2.213740458015267,-1.2366412213740459,905,0,0,5,4,5,5,594
1740329990.0126905,2.059716796875,-0.30895751953125,-9.395661621093751,-8.297709923664122,-2.572519083969466,-1.4198473282442747,905,0,0,5,4,5,5,594
1740329990.0177975,2.09564208984375,-0.335302734375,-9.4507470703125,-7.9465648854961835,-2.404580152671756,-1.5877862595419847,905,0,0,5,4,5,5,594
1740329990.0228872,2.10522216796875,-0.38080810546875005,-9.395661621093751,-7.870229007633588,-2.1374045801526718,-1.282442748091603,905,0,0,5,4,5,5,594
1740329990.0279255,2.11001220703125,-0.33290771484375004,-9.501042480468751,-7.847328244274809,-1.7557251908396947,-1.297709923664122,905,0,0,5,4,5,5,594
1740329990.033648,2.078876953125,-0.35206787109375004,-9.48427734375,-7.412213740458015,-1.6717557251908397,-1.2900763358778626,905,0,0,5,4,5,5,594
1740329990.0389168,2.078876953125,-0.33290771484375004,-9.42919189453125,-7.244274809160306,-1.8473282442748091,-1.16793893129771,905,0,0,5,4,5,5,594
1740329990.044169,2.0932470703125,-0.35206787109375004,-9.613608398437501,-7.816793893129771,-1.2595419847328244,-1.213740458015267,905,0,0,5,4,5,5,594
1740329990.0525172,2.06690185546875,-0.29458740234375,-9.48667236328125,-7.1603053435114505,-2.16793893129771,-1.2290076335877862,905,0,0,5,4,5,5,594
1740329990.0580103,2.10522216796875,-0.3784130859375,-9.508227539062501,-7.557251908396947,-2.3435114503816794,-1.2900763358778626,905,0,0,5,4,5,5,594
1740329990.0631194,2.13875244140625,-0.26105712890625,-9.3262060546875,-7.709923664122138,-2.7022900763358777,-1.0763358778625953,905,0,0,5,4,5,5,594
1740329990.0684717,2.1028271484375,-0.3879931640625,-9.5034375,-7.740458015267175,-2.8091603053435112,-1.3053435114503817,905,0,0,5,4,5,5,594
1740329990.0739148,2.11959228515625,-0.1772314453125,-9.469907226562501,-8.076335877862595,-2.9770992366412212,-1.4351145038167938,905,0,0,5,4,5,5,594
1740329990.0802927,2.0740869140625002,-0.33290771484375004,-9.374106445312501,-7.786259541984733,-3.0076335877862594,-1.3282442748091603,905,0,0,4,4,5,4,591
1740329990.0856018,2.08606201171875,-0.3400927734375,-9.402846679687501,-7.740458015267175,-2.9923664122137406,-1.4045801526717556,927,0,0,4,4,5,4,591
1740329990.0906656,2.05732177734375,-0.3496728515625,-9.469907226562501,-7.595419847328245,-2.9083969465648853,-1.282442748091603,927,0,0,4,4,5,4,591
1740329990.0959175,2.11001220703125,-0.3592529296875,-9.441166992187501,-7.6106870229007635,-2.8091603053435112,-1.2595419847328244,927,0,0,4,4,5,4,591
1740329990.1010225,2.0381616210937503,-0.3113525390625,-9.35255126953125,-7.641221374045801,-2.732824427480916,-1.3129770992366412,927,0,0,4,4,5,4,591
1740329990.1060724,2.11959228515625,-0.41194335937500004,-9.61600341796875,-7.480916030534351,-2.480916030534351,-1.3053435114503817,927,0,0,4,4,5,4,591
1740329990.1113274,2.0932470703125,-0.36404296875000003,-9.381291503906251,-7.564885496183206,-2.4580152671755724,-1.3511450381679388,927,0,0,4,4,5,4,591
1740329990.1176455,2.1411474609375003,-0.354462890625,-9.45793212890625,-7.473282442748092,-2.0916030534351147,-1.2213740458015268,927,0,0,4,4,5,4,591
1740329990.1228073,2.1076171875000003,-0.354462890625,-9.35255126953125,-7.175572519083969,-2.045801526717557,-1.2290076335877862,927,0,0,4,4,5,4,591
1740329990.1278348,2.05253173828125,-0.3305126953125,-9.49146240234375,-7.099236641221374,-1.5572519083969465,-1.213740458015267,927,0,0,4,4,5,4,591
1740329990.1329188,2.08606201171875,-0.34248779296875004,-9.4315869140625,-6.9465648854961835,-1.6259541984732824,-1.1374045801526718,927,0,0,4,4,5,4,591
1740329990.1379406,2.12917236328125,-0.29937744140625,-9.45314208984375,-7.061068702290076,-1.5114503816793894,-1.1755725190839694,927,0,0,4,4,5,4,591
1740329990.1429737,2.10522216796875,-0.34248779296875004,-9.44595703125,-7.061068702290076,-1.7709923664122138,-1.1374045801526718,927,0,0,4,4,5,4,591
1740329990.1487174,2.1315673828125,-0.31374755859375003,-9.48667236328125,-7.114503816793893,-1.9236641221374047,-1.015267175572519,927,0,0,4,4,5,4,591
1740329990.1539292,2.078876953125,-0.3305126953125,-9.43877197265625,-6.969465648854962,-3.8091603053435112,-1.2061068702290076,927,0,0,4,4,5,4,591
1740329990.1591225,2.07648193359375,-0.24908203125,-9.474697265625,-7.114503816793893,-1.786259541984733,-1.1755725190839694,927,0,0,4,4,5,4,591
1740329990.1661716,2.08606201171875,-0.3209326171875,-9.448352050781251,-6.961832061068702,-2.2977099236641223,-1.3587786259541985,927,0,0,4,4,5,4,591
1740329990.1719823,2.0908520507812502,-0.3784130859375,-9.41961181640625,-7.519083969465649,-2.122137404580153,-1.366412213740458,927,0,0,4,4,5,4,591
1740329990.177381,2.10043212890625,-0.296982421875,-9.395661621093751,-7.312977099236641,-2.4198473282442747,-1.297709923664122,927,0,0,4,4,5,4,591
1740329990.1830332,2.06211181640625,-0.3400927734375,-9.60163330078125,-7.763358778625954,-2.564885496183206,-1.366412213740458,927,0,0,4,5,5,5,596
1740329990.188142,2.10043212890625,-0.16525634765625,-9.493857421875001,-7.969465648854962,-2.648854961832061,-1.381679389312977,907,0,0,4,5,5,5,596
1740329990.193825,2.14354248046875,-0.35206787109375004,-9.402846679687501,-7.778625954198473,-2.3893129770992365,-1.3053435114503817,907,0,0,4,5,5,5,596
1740329990.1991642,2.28005859375,-0.3496728515625,-9.433981933593751,-7.679389312977099,-2.648854961832061,-1.4351145038167938,907,0,0,4,5,5,5,596
1740329990.2043197,2.05732177734375,-0.34248779296875004,-9.455537109375001,-7.564885496183206,-2.801526717557252,-1.251908396946565,907,0,0,4,5,5,5,596
1740329990.209403,2.0357666015625,-0.3113525390625,-9.30944091796875,-7.709923664122138,-2.5572519083969465,-1.2671755725190839,907,0,0,4,5,5,5,596
1740329990.2144537,2.0932470703125,-0.34727783203125,-9.48667236328125,-7.641221374045801,-2.1526717557251906,-1.1526717557251909,907,0,0,4,5,5,5,596
1740329990.2195566,2.0213964843750003,-0.35685791015625,-9.43877197265625,-7.5038167938931295,-2.717557251908397,-1.2900763358778626,907,0,0,4,5,5,5,596
1740329990.224601,2.059716796875,-0.32572265625,-9.60163330078125,-7.702290076335878,-1.8625954198473282,-1.3282442748091603,907,0,0,4,5,5,5,596
1740329990.2303681,2.059716796875,-0.39517822265625,-9.455537109375001,-7.206106870229007,-2.2213740458015265,-1.16793893129771,907,0,0,4,5,5,5,596
1740329990.2359118,2.078876953125,-0.354462890625,-9.50583251953125,-7.221374045801527,-2.213740458015267,-1.183206106870229,907,0,0,4,5,5,5,596
1740329990.241022,2.10043212890625,-0.31374755859375003,-9.40045166015625,-7.099236641221374,-2.1755725190839694,-1.1450381679389312,907,0,0,4,5,5,5,596
1740329990.2460666,2.05013671875,-0.28979736328125,-9.4794873046875,-7.450381679389313,-2.0610687022900764,-1.16793893129771,907,0,0,4,5,5,5,596
1740329990.251134,2.0980371093750003,-0.35206787109375004,-9.357341308593751,-7.374045801526718,-2.0229007633587788,-1.2061068702290076,907,0,0,4,5,5,5,596
1740329990.2561815,2.0932470703125,-0.35685791015625,-9.529782714843751,-7.320610687022901,-1.9618320610687023,-1.2290076335877862,907,0,0,4,5,5,5,596
1740329990.261224,1.9974462890625,-0.32572265625,-9.441166992187501,-7.427480916030534,-2.1068702290076335,-1.1755725190839694,907,0,0,4,5,5,5,596
1740329990.2662933,2.08845703125,-0.30895751953125,-9.455537109375001,-7.465648854961832,-2.068702290076336,-1.1374045801526718,907,0,0,4,5,5,5,596
1740329990.2716062,2.0740869140625002,-0.36404296875000003,-9.45314208984375,-7.6106870229007635,-1.8396946564885497,-1.1374045801526718,907,0,0,4,5,5,5,596
1740329990.276799,2.0836669921875,-0.39278320312500004,-9.381291503906251,-7.32824427480916,-2.0839694656488548,-1.3587786259541985,907,0,0,4,5,5,5,596
1740329990.2847512,2.05732177734375,-0.3496728515625,-9.36213134765625,-7.427480916030534,-2.3435114503816794,-1.251908396946565,907,0,0,7,6,6,6,598
1740329990.2901156,2.09564208984375,-0.29219238281250004,-9.37171142578125,-7.641221374045801,-2.3206106870229006,-1.3740458015267176,930,0,0,7,6,6,6,598
1740329990.2952962,2.1243823242187503,-0.31374755859375003,-9.49625244140625,-7.648854961832061,-2.6030534351145036,-1.282442748091603,930,0,0,7,6,6,6,598
1740329990.3010015,2.08845703125,-0.3113525390625,-9.41961181640625,-7.748091603053435,-2.66412213740458,-1.2671755725190839,930,0,0,7,6,6,6,598
1740329990.3061738,2.1076171875000003,-0.4167333984375,-9.30465087890625,-7.679389312977099,-2.984732824427481,-1.2213740458015268,930,0,0,7,6,6,6,598
1740329990.3128512,2.11959228515625,-0.33290771484375004,-9.35255126953125,-7.6106870229007635,-3.1603053435114505,-1.4580152671755726,930,0,0,7,6,6,6,598
1740329990.3180568,2.0645068359375003,-0.34248779296875004,-9.4315869140625,-5.870229007633588,-3.1603053435114505,-1.3282442748091603,930,0,0,7,6,6,6,598
1740329990.3231194,2.09564208984375,-0.3592529296875,-9.48427734375,-5.900763358778626,-3.0229007633587788,-1.282442748091603,930,0,0,7,6,6,6,598
1740329990.328158,2.06211181640625,-0.35685791015625,-9.43877197265625,-7.755725190839694,-2.83206106870229,-1.4122137404580153,930,0,0,7,6,6,6,598
1740329990.3331912,2.08845703125,-0.37362304687500003,-9.45793212890625,-7.66412213740458,-2.7099236641221376,-1.3511450381679388,930,0,0,7,6,6,6,598
1740329990.3382592,2.0740869140625002,-0.38559814453125,-9.342971191406251,-7.625954198473282,-2.5267175572519083,-1.3435114503816794,930,0,0,7,6,6,6,598
1740329990.3435192,2.1219873046875,-0.37122802734375004,-9.340576171875,-7.587786259541985,-2.1755725190839694,-1.297709923664122,930,0,0,7,6,6,6,598
1740329990.349644,2.1076171875000003,-0.41194335937500004,-9.398056640625,-7.580152671755725,-2.3435114503816794,-1.1374045801526718,930,0,0,7,6,6,6,598
1740329990.3547838,2.08606201171875,-0.34727783203125,-9.44595703125,-7.458015267175573,-2.33587786259542,-1.3511450381679388,930,0,0,7,6,6,6,598
1740329990.3598444,2.12677734375,-0.3592529296875,-9.402846679687501,-7.557251908396947,-2.381679389312977,-1.4885496183206106,930,0,0,7,6,6,6,598
1740329990.3649464,2.08606201171875,-0.45984375,-9.455537109375001,-7.412213740458015,-2.4885496183206106,-1.3587786259541985,930,0,0,7,6,6,6,598
1740329990.3699872,2.1028271484375,-0.3305126953125,-9.4507470703125,-7.419847328244275,-2.3893129770992365,-1.1450381679389312,930,0,0,7,6,6,6,598
1740329990.3750207,2.0549267578125,-0.3400927734375,-9.40763671875,-7.534351145038168,-2.198473282442748,-1.3282442748091603,930,0,0,7,6,6,6,598
1740329990.3800547,1.9974462890625,-0.37362304687500003,-9.31902099609375,-7.419847328244275,-2.213740458015267,-1.2900763358778626,930,0,0,7,6,6,6,598
1740329990.3851676,2.069296875,-0.354462890625,-9.44356201171875,-7.6183206106870225,-2.1374045801526718,-1.183206106870229,930,0,0,9,7,7,7,594
1740329990.3903768,2.07648193359375,-0.33769775390625,-9.381291503906251,-7.6183206106870225,-3.9083969465648853,-1.16793893129771,929,0,0,9,7,7,7,594
1740329990.3958876,2.05732177734375,-0.32811767578125,-9.38608154296875,-7.694656488549619,-2.053435114503817,-1.16793893129771,929,0,0,9,7,7,7,594
1740329990.405495,2.1028271484375,-0.38320312500000003,-9.474697265625,-7.526717557251908,-1.717557251908397,-1.3587786259541985,929,0,0,9,7,7,7,594
1740329990.4106708,2.14833251953125,-0.38080810546875005,-9.417216796875001,-7.473282442748092,-1.8549618320610688,-1.2290076335877862,929,0,0,9,7,7,7,594
1740329990.4157612,2.078876953125,-0.335302734375,-9.436376953125,-7.3893129770992365,-2.2519083969465647,-1.282442748091603,929,0,0,9,7,7,7,594
1740329990.4208794,2.07169189453125,-0.37362304687500003,-9.4124267578125,-7.480916030534351,-2.3587786259541983,-1.282442748091603,929,0,0,9,7,7,7,594
1740329990.4274652,1.99984130859375,-0.3209326171875,-9.40763671875,-7.442748091603053,-2.450381679389313,-1.1984732824427482,929,0,0,9,7,7,7,594
1740329990.4326274,2.07648193359375,-0.29937744140625,-9.33818115234375,-7.511450381679389,-2.687022900763359,-1.4351145038167938,929,0,0,9,7,7,7,594
1740329990.4378116,2.05013671875,-0.37122802734375004,-9.398056640625,-7.473282442748092,-2.83206106870229,-1.2671755725190839,929,0,0,9,7,7,7,594
1740329990.4429054,2.0932470703125,-0.32811767578125,-9.448352050781251,-7.549618320610687,-2.633587786259542,-1.3282442748091603,929,0,0,9,7,7,7,594
1740329990.4484012,2.0549267578125,-0.3209326171875,-9.4124267578125,-7.633587786259542,-3.0229007633587788,-1.2595419847328244,929,0,0,9,7,7,7,594
1740329990.453733,2.11480224609375,-0.29937744140625,-9.49146240234375,-7.679389312977099,-2.7938931297709924,-1.1908396946564885,929,0,0,9,7,7,7,594
1740329990.4603653,2.07169189453125,-0.3496728515625,-9.477092285156251,-7.755725190839694,-2.8244274809160306,-1.2366412213740459,929,0,0,9,7,7,7,594
1740329990.468298,2.08845703125,-0.32811767578125,-9.36692138671875,-8.007633587786259,-2.717557251908397,-1.5114503816793894,929,0,0,9,7,7,7,594
1740329990.47473,1.99984130859375,-0.34727783203125,-9.374106445312501,-8.053435114503817,-2.8702290076335877,-1.4198473282442747,929,0,0,9,7,7,7,594
1740329990.4818504,2.136357421875,-0.3879931640625,-9.433981933593751,-8.076335877862595,-2.7786259541984735,-1.381679389312977,929,0,0,10,9,8,8,596
1740329990.4889007,2.06211181640625,-0.3592529296875,-9.41482177734375,-8.297709923664122,-2.8396946564885495,-1.3206106870229009,901,0,0,10,9,8,8,596
1740329990.4945536,2.0836669921875,-0.3113525390625,-9.398056640625,-8.15267175572519,-2.816793893129771,-1.3358778625954197,901,0,0,10,9,8,8,596
1740329990.4996717,2.07648193359375,-0.36164794921875004,-9.2351953125,-7.702290076335878,-2.8931297709923665,-1.4045801526717556,901,0,0,10,9,8,8,596
1740329990.5048072,2.07648193359375,-0.38320312500000003,-9.493857421875001,-7.9541984732824424,-2.954198473282443,-1.3206106870229009,901,0,0,10,9,8,8,596
1740329990.5100653,2.0980371093750003,-0.37362304687500003,-9.4794873046875,-8.19083969465649,-2.6946564885496183,-1.297709923664122,901,0,0,10,9,8,8,596
1740329990.5155237,2.11001220703125,-0.38320312500000003,-9.42440185546875,-7.916030534351145,-2.7480916030534353,-1.4198473282442747,901,0,0,10,9,8,8,596
1740329990.524972,2.040556640625,-0.33290771484375004,-9.4124267578125,-7.9465648854961835,-2.83206106870229,-1.297709923664122,901,0,0,10,9,8,8,596
1740329990.5302782,2.11959228515625,-0.45026367187500005,-9.36213134765625,-8.114503816793894,-2.519083969465649,-1.2290076335877862,901,0,0,10,9,8,8,596
1740329990.5353842,2.07169189453125,-0.335302734375,-9.374106445312501,-9.748091603053435,-2.8625954198473282,-1.3282442748091603,901,0,0,10,9,8,8,596
1740329990.540437,2.09564208984375,-0.335302734375,-9.3645263671875,-8.061068702290076,-2.8244274809160306,-1.5114503816793894,901,0,0,10,9,8,8,596
1740329990.5471313,2.08845703125,-0.28979736328125,-9.340576171875,-8.236641221374045,-3.0381679389312977,-1.5725190839694656,901,0,0,10,9,8,8,596
1740329990.5532768,2.0645068359375003,-0.35206787109375004,-9.381291503906251,-8.465648854961833,-2.717557251908397,-1.4198473282442747,901,0,0,10,9,8,8,596
1740329990.5596771,2.078876953125,-0.32811767578125,-9.46751220703125,-8.267175572519085,-3.0076335877862594,-1.3587786259541985,901,0,0,10,9,8,8,596
1740329990.5647528,2.10522216796875,-0.34248779296875004,-9.38608154296875,-8.251908396946565,-2.6717557251908395,-1.5114503816793894,901,0,0,10,9,8,8,596
1740329990.56981,2.1076171875000003,-0.3209326171875,-9.6519287109375,-8.580152671755725,-2.7938931297709924,-1.4885496183206106,901,0,0,10,9,8,8,596
1740329990.574865,2.13875244140625,-0.3688330078125,-9.37650146484375,-7.9465648854961835,-3.16793893129771,-1.2213740458015268,901,0,0,10,9,8,8,596
1740329990.5799193,2.08606201171875,-0.32572265625,-9.3645263671875,-8.587786259541986,-3.9083969465648853,-1.3587786259541985,901,0,0,10,9,8,8,596
1740329990.5852182,2.04295166015625,-0.34727783203125,-9.515412597656251,-5.916030534351145,-2.3587786259541983,-1.465648854961832,901,0,0,13,10,9,9,591
1740329990.5906625,2.01900146484375,-0.37122802734375004,-9.357341308593751,-7.351145038167939,-2.2595419847328246,-1.297709923664122,888,0,0,13,10,9,9,591
1740329990.5960147,2.14354248046875,-0.39517822265625,-9.4986474609375,-7.236641221374046,-1.251908396946565,-1.3282442748091603,888,0,0,13,10,9,9,591
1740329990.6022022,2.1674926757812503,-0.29219238281250004,-9.223220214843751,-6.755725190839694,-2.1908396946564888,-1.183206106870229,888,0,0,13,10,9,9,591
1740329990.6091182,2.12677734375,-0.3592529296875,-9.48188232421875,-5.916030534351145,-1.9083969465648856,-1.3740458015267176,888,0,0,13,10,9,9,591
1740329990.6152728,2.136357421875,-0.33769775390625,-9.4794873046875,-7.854961832061068,-1.9770992366412214,-1.2748091603053435,888,0,0,13,10,9,9,591
1740329990.6205947,2.0932470703125,-0.3496728515625,-9.3645263671875,-6.7251908396946565,-2.3893129770992365,-1.0763358778625953,888,0,0,13,10,9,9,591
1740329990.625673,2.0908520507812502,-0.32572265625,-9.51062255859375,-7.236641221374046,-2.045801526717557,-1.2900763358778626,888,0,0,13,10,9,9,591
1740329990.631909,2.1028271484375,-0.36643798828125,-9.433981933593751,-7.557251908396947,-2.648854961832061,-1.4122137404580153,888,0,0,13,10,9,9,591
1740329990.637005,2.0908520507812502,-0.30416748046875003,-9.462722167968751,-8.221374045801527,-2.900763358778626,-1.465648854961832,888,0,0,13,10,9,9,591
1740329990.6420605,2.09564208984375,-0.36643798828125,-9.4124267578125,-7.877862595419847,-2.5801526717557253,-1.465648854961832,888,0,0,13,10,9,9,591
1740329990.64709,2.08845703125,-0.34727783203125,-9.4986474609375,-7.297709923664122,-2.2442748091603053,-1.3129770992366412,888,0,0,13,10,9,9,591
1740329990.6521268,2.0549267578125,-0.3305126953125,-9.359736328125,-7.1679389312977095,-1.8091603053435115,-1.183206106870229,888,0,0,13,10,9,9,591
1740329990.657164,2.06690185546875,-0.3448828125,-9.40045166015625,-6.870229007633588,-1.7557251908396947,-1.0763358778625953,888,0,0,13,10,9,9,591
1740329990.6622016,2.069296875,-0.32572265625,-9.43877197265625,-7.1603053435114505,-1.6641221374045803,-1.3740458015267176,888,0,0,13,10,9,9,591
1740329990.667281,2.1219873046875,-0.1580712890625,-9.5273876953125,-7.175572519083969,-1.8854961832061068,-1.2366412213740459,888,0,0,13,10,9,9,591
1740329990.6724355,2.1076171875000003,-0.3113525390625,-9.4507470703125,-7.404580152671755,-1.9389312977099236,-1.3282442748091603,888,0,0,13,10,9,9,591
1740329990.677606,2.06211181640625,-0.32572265625,-9.462722167968751,-7.557251908396947,-2.122137404580153,-1.1603053435114503,888,0,0,13,10,9,9,591
1740329990.6842525,2.0980371093750003,-0.35685791015625,-9.328601074218751,-7.3893129770992365,-1.9770992366412214,-1.0687022900763359,888,0,0,14,11,12,10,593
1740329990.6897964,2.11001220703125,-0.38320312500000003,-9.321416015625001,-7.2748091603053435,-1.8778625954198473,-1.1221374045801527,894,0,0,14,11,12,10,593
1740329990.694887,2.08606201171875,-0.4071533203125,-9.469907226562501,-7.152671755725191,-1.6488549618320612,-1.1374045801526718,894,0,0,14,11,12,10,593
1740329990.6999943,2.2944287109375003,-0.17483642578125,-9.40763671875,-6.984732824427481,-1.549618320610687,-1.282442748091603,894,0,0,14,11,12,10,593
1740329990.7051206,2.1124072265625,-0.35685791015625,-9.374106445312501,-7.175572519083969,-1.6717557251908397,-1.251908396946565,894,0,0,14,11,12,10,593
1740329990.7125468,2.10043212890625,-0.36404296875000003,-9.433981933593751,-6.977099236641221,-1.5419847328244274,-1.282442748091603,894,0,0,14,11,12,10,593
1740329990.7182739,1.99984130859375,-0.35685791015625,-9.359736328125,-6.885496183206107,-1.3511450381679388,-1.183206106870229,894,0,0,14,11,12,10,593
1740329990.723356,2.0142114257812502,-0.335302734375,-9.5034375,-6.8320610687022905,-1.3206106870229009,-1.0916030534351144,894,0,0,14,11,12,10,593
1740329990.7283874,2.10522216796875,-0.33290771484375004,-9.4794873046875,-6.984732824427481,-1.786259541984733,-1.213740458015267,894,0,0,14,11,12,10,593
1740329990.7334316,2.0213964843750003,-0.3305126953125,-9.4315869140625,-6.961832061068702,-2.145038167938931,-1.282442748091603,894,0,0,14,11,12,10,593
1740329990.738468,1.9974462890625,-0.39996826171875,-9.493857421875001,-7.374045801526718,-2.1755725190839694,-1.2061068702290076,894,0,0,14,11,12,10,593
1740329990.743537,2.14354248046875,-0.40954833984375,-9.45793212890625,-7.190839694656488,-2.4656488549618323,-1.5038167938931297,894,0,0,14,11,12,10,593
1740329990.7486873,2.12917236328125,-0.3448828125,-9.374106445312501,-7.099236641221374,-2.3969465648854964,-1.3969465648854962,894,0,0,14,11,12,10,593
1740329990.7538447,2.0980371093750003,-0.34727783203125,-9.455537109375001,-7.458015267175573,-2.4732824427480917,-1.2366412213740459,894,0,0,14,11,12,10,593
1740329990.759027,2.07648193359375,-0.4646337890625,-9.402846679687501,-7.267175572519084,-2.1297709923664123,-1.4732824427480915,894,0,0,14,11,12,10,593
1740329990.764215,2.11480224609375,-0.31853759765625,-9.4124267578125,-7.435114503816794,-2.351145038167939,-1.2671755725190839,894,0,0,14,11,12,10,593
1740329990.7695024,2.1219873046875,-0.354462890625,-9.46751220703125,-6.870229007633588,-1.8396946564885497,-1.251908396946565,894,0,0,14,11,12,10,593
1740329990.7745657,2.05013671875,-0.3448828125,-9.44595703125,-6.465648854961832,-1.5572519083969465,-1.0458015267175573,894,0,0,14,11,12,10,593
1740329990.779657,2.16270263671875,-0.32572265625,-9.3262060546875,-6.442748091603053,-1.1526717557251909,-1.0687022900763359,894,0,0,14,11,12,10,593
1740329990.784767,2.12677734375,-0.32572265625,-9.31902099609375,-6.1603053435114505,-1.1221374045801527,-1.0916030534351144,894,0,0,14,11,11,10,593
1740329990.789852,2.06690185546875,-0.29219238281250004,-9.302255859375,-5.793893129770993,-1.4122137404580153,-0.9312977099236641,886,0,0,14,11,11,10,593
1740329990.7948778,2.1243823242187503,-0.37362304687500003,-9.649533691406251,-6.564885496183206,-0.9847328244274809,-1.099236641221374,886,0,0,14,11,11,10,593
1740329990.7999103,2.1339624023437502,-0.3305126953125,-9.4220068359375,-6.786259541984733,-0.5648854961832062,-1.0229007633587786,886,0,0,14,11,11,10,593
1740329990.8051867,2.1315673828125,-0.28740234375,-9.477092285156251,-6.603053435114504,-0.05343511450381679,-1.1603053435114503,886,0,0,14,11,11,10,593
1740329990.8102202,2.0932470703125,-0.34727783203125,-9.3549462890625,-6.366412213740458,-1.2290076335877862,-1.213740458015267,886,0,0,14,11,11,10,593
1740329990.815952,2.078876953125,-0.3496728515625,-9.433981933593751,-6.320610687022901,-1.4427480916030535,-1.1755725190839694,886,0,0,14,11,11,10,593
1740329990.8216538,2.09564208984375,-0.3448828125,-9.47230224609375,-6.702290076335878,-1.4274809160305344,-1.3206106870229009,886,0,0,14,11,11,10,593
1740329990.8267803,2.1603076171875,-0.4167333984375,-9.462722167968751,-7.022900763358779,-1.7557251908396947,-1.2748091603053435,886,0,0,14,11,11,10,593
1740329990.831902,2.18665283203125,-0.3400927734375,-9.536967773437501,-7.236641221374046,-1.900763358778626,-1.2061068702290076,886,0,0,14,11,11,10,593
1740329990.8369806,2.1243823242187503,-0.3879931640625,-9.45793212890625,-7.251908396946565,-1.7709923664122138,-1.381679389312977,886,0,0,14,11,11,10,593
1740329990.8420355,2.14354248046875,-0.42152343750000004,-9.4220068359375,-7.480916030534351,-2.045801526717557,-1.3282442748091603,886,0,0,14,11,11,10,593
1740329990.8470817,2.1219873046875,-0.3592529296875,-9.493857421875001,-7.488549618320611,-1.9923664122137406,-1.2671755725190839,886,0,0,14,11,11,10,593
1740329990.852123,1.99265625,-0.43110351562500004,-9.395661621093751,-7.824427480916031,-2.1603053435114505,-1.2595419847328244,886,0,0,14,11,11,10,593
1740329990.857162,1.9974462890625,-0.3592529296875,-9.39087158203125,-7.427480916030534,-2.114503816793893,-1.2595419847328244,886,0,0,14,11,11,10,593
1740329990.8622007,2.117197265625,-0.3879931640625,-9.36931640625,-7.480916030534351,-2.1908396946564888,-1.3893129770992367,886,0,0,14,11,11,10,593
1740329990.8673494,2.15312255859375,-0.3448828125,-9.5034375,-7.6106870229007635,-2.1374045801526718,-1.366412213740458,886,0,0,14,11,11,10,593
1740329990.8723993,2.06690185546875,-0.3448828125,-9.3836865234375,-7.656488549618321,-2.0610687022900764,-1.2671755725190839,886,0,0,14,11,11,10,593
1740329990.877438,2.0908520507812502,-0.37601806640625,-9.41482177734375,-7.488549618320611,-2.015267175572519,-1.282442748091603,886,0,0,14,11,11,10,593
1740329990.882486,2.117197265625,-0.3975732421875,-9.410031738281251,-7.32824427480916,-2.053435114503817,-1.2900763358778626,886,0,0,14,11,11,10,593
1740329990.887536,1.9950512695312501,-0.34727783203125,-9.441166992187501,-7.3893129770992365,-2.0076335877862594,-1.3053435114503817,914,0,0,15,12,11,11,591
1740329990.8925762,2.1219873046875,-0.39996826171875,-9.48667236328125,-7.259541984732825,-1.9541984732824427,-1.3358778625954197,914,0,0,15,12,11,11,591
1740329990.8976138,2.07169189453125,-0.33290771484375004,-9.54415283203125,-7.427480916030534,-1.9389312977099236,-1.1526717557251909,914,0,0,15,12,11,11,591
1740329990.9026523,2.09564208984375,-0.30895751953125,-9.402846679687501,-7.541984732824427,-2.122137404580153,-1.183206106870229,914,0,0,15,12,11,11,591
1740329990.907707,2.0357666015625,-0.32811767578125,-9.40763671875,-7.412213740458015,-2.2442748091603053,-1.213740458015267,914,0,0,15,12,11,11,591
1740329990.9127448,2.1028271484375,-0.36643798828125,-9.4986474609375,-7.6183206106870225,-2.3969465648854964,-1.282442748091603,914,0,0,15,12,11,11,591
1740329990.9177918,2.11959228515625,-0.3496728515625,-9.45314208984375,-7.480916030534351,-2.564885496183206,-1.5114503816793894,914,0,0,15,12,11,11,591
1740329990.9228313,2.1339624023437502,-0.3592529296875,-9.402846679687501,-7.572519083969466,-2.687022900763359,-1.3511450381679388,914,0,0,15,12,11,11,591
1740329990.927869,2.06690185546875,-0.4071533203125,-9.4986474609375,-7.435114503816794,-2.8091603053435112,-1.4580152671755726,914,0,0,15,12,11,11,591
1740329990.9329104,2.0980371093750003,-0.31374755859375003,-9.455537109375001,-7.801526717557252,-2.885496183206107,-1.2366412213740459,914,0,0,15,12,11,11,591
1740329990.9379497,2.1124072265625,-0.39038818359375,-9.45314208984375,-9.694656488549619,-3.0076335877862594,-1.4809160305343512,914,0,0,15,12,11,11,591
1740329990.942989,2.136357421875,-0.3592529296875,-9.508227539062501,-7.809160305343512,-3.1908396946564888,-1.5801526717557253,914,0,0,15,12,11,11,591
1740329990.948025,2.07169189453125,-0.32811767578125,-9.35255126953125,-8.022900763358779,-2.816793893129771,-1.3740458015267176,914,0,0,15,12,11,11,591
1740329990.9530618,2.06211181640625,-0.40236328125000004,-9.29986083984375,-7.740458015267175,-2.954198473282443,-1.366412213740458,914,0,0,15,12,11,11,591
1740329990.9581006,2.11001220703125,-0.32332763671875003,-9.4651171875,-7.8396946564885495,-2.9083969465648853,-1.5725190839694656,914,0,0,15,12,11,11,591
1740329990.963142,2.0812719726562503,-0.3400927734375,-9.25196044921875,-7.916030534351145,-2.5343511450381677,-1.3358778625954197,914,0,0,15,12,11,11,591
1740329990.9681797,2.17228271484375,-0.35685791015625,-9.36213134765625,-7.404580152671755,-2.7099236641221376,-1.3129770992366412,914,0,0,15,12,11,11,591
1740329990.9732168,2.1842578125000003,-0.31853759765625,-9.4315869140625,-7.435114503816794,-2.427480916030534,-1.2290076335877862,914,0,0,15,12,11,11,591
1740329990.9782653,2.0812719726562503,-0.3448828125,-9.3932666015625,-7.66412213740458,-2.2977099236641223,-1.3969465648854962,914,0,0,15,12,11,11,591
1740329990.9833043,2.24892333984375,-0.354462890625,-9.455537109375001,-7.297709923664122,-2.3893129770992365,-1.282442748091603,914,0,0,15,12,11,11,591
1740329990.988344,2.07648193359375,-0.3113525390625,-9.436376953125,-7.312977099236641,-2.099236641221374,-1.2595419847328244,917,0,0,15,11,11,10,589
1740329990.9933822,2.0908520507812502,-0.3688330078125,-9.36931640625,-7.32824427480916,-2.1755725190839694,-1.3358778625954197,917,0,0,15,11,11,10,589
1740329990.9984207,2.069296875,-0.39517822265625,-9.359736328125,-7.152671755725191,-2.1526717557251906,-1.3435114503816794,917,0,0,15,11,11,10,589
1740329991.0034583,2.078876953125,-0.37601806640625,-9.41961181640625,-7.366412213740458,-2.213740458015267,-1.3053435114503817,917,0,0,15,11,11,10,589
1740329991.0084958,2.174677734375,-0.35685791015625,-9.462722167968751,-7.358778625954199,-2.068702290076336,-1.3511450381679388,917,0,0,15,11,11,10,589
1740329991.013533,2.1579125976562503,-0.3496728515625,-9.30465087890625,-7.419847328244275,-2.0839694656488548,-1.2213740458015268,917,0,0,15,11,11,10,589
1740329991.0185788,2.08606201171875,-0.3400927734375,-9.4986474609375,-7.526717557251908,-2.2900763358778624,-1.2213740458015268,917,0,0,15,11,11,10,589
1740329991.0236669,2.1219873046875,-0.354462890625,-9.462722167968751,-7.442748091603053,-2.3282442748091605,-1.213740458015267,917,0,0,15,11,11,10,589
1740329991.0287485,2.11001220703125,-0.35206787109375004,-9.4986474609375,-7.435114503816794,-2.198473282442748,-1.4427480916030535,917,0,0,15,11,11,10,589
1740329991.0338025,2.1315673828125,-0.39278320312500004,-9.41961181640625,-7.564885496183206,-2.3969465648854964,-1.1908396946564885,917,0,0,15,11,11,10,589
1740329991.0388396,2.1243823242187503,-0.3448828125,-9.37650146484375,-7.450381679389313,-2.198473282442748,-1.366412213740458,917,0,0,15,11,11,10,589
1740329991.0438774,2.29682373046875,-0.3305126953125,-9.441166992187501,-7.198473282442748,-2.1374045801526718,-1.0610687022900764,917,0,0,15,11,11,10,589
1740329991.0489337,2.13875244140625,-0.3448828125,-9.4651171875,-7.244274809160306,-1.9465648854961832,-1.3587786259541985,917,0,0,15,11,11,10,589
1740329991.0539856,2.0812719726562503,-0.41194335937500004,-9.493857421875001,-7.0458015267175576,-2.3053435114503817,-1.3740458015267176,917,0,0,15,11,11,10,589
1740329991.0590272,2.1459375,-0.3975732421875,-9.436376953125,-6.984732824427481,-2.2061068702290076,-1.3053435114503817,917,0,0,15,11,11,10,589
1740329991.0640666,2.05253173828125,-0.3688330078125,-9.448352050781251,-7.259541984732825,-2.053435114503817,-1.2213740458015268,917,0,0,15,11,11,10,589
1740329991.0691044,2.12677734375,-0.3784130859375,-9.493857421875001,-7.198473282442748,-1.9923664122137406,-1.366412213740458,917,0,0,15,11,11,10,589
1740329991.074142,2.1315673828125,-0.35206787109375004,-9.4986474609375,-6.977099236641221,-2.183206106870229,-1.2442748091603053,917,0,0,15,11,11,10,589
1740329991.0791817,2.1243823242187503,-0.35685791015625,-9.4651171875,-7.229007633587786,-1.8473282442748091,-1.4045801526717556,917,0,0,15,11,11,10,589
1740329991.0842292,2.2752685546875,-0.38320312500000003,-9.314230957031251,-7.091603053435114,-2.4732824427480917,-1.213740458015267,917,0,0,15,11,11,10,592
1740329991.0892713,2.19144287109375,-0.38080810546875005,-9.56331298828125,-7.244274809160306,-2.969465648854962,-1.3129770992366412,923,0,0,15,11,11,10,592
1740329991.094311,2.12917236328125,-0.35685791015625,-9.39087158203125,-7.7251908396946565,-2.854961832061069,-1.6259541984732824,923,0,0,15,11,11,10,592
1740329991.0993488,2.0980371093750003,-0.37362304687500003,-9.23280029296875,-7.67175572519084,-2.8091603053435112,-1.2290076335877862,923,0,0,15,11,11,10,592
1740329991.104386,2.1339624023437502,-0.39517822265625,-9.4651171875,-7.778625954198473,-2.595419847328244,-1.5267175572519085,923,0,0,15,11,11,10,592
1740329991.1094234,2.1459375,-0.296982421875,-9.3453662109375,-7.625954198473282,-2.6412213740458017,-1.2900763358778626,923,0,0,15,11,11,10,592
1740329991.1144621,2.136357421875,-0.34248779296875004,-9.38608154296875,-7.687022900763359,-2.3206106870229006,-1.3053435114503817,923,0,0,15,11,11,10,592
1740329991.1195145,2.14354248046875,-0.41194335937500004,-9.40763671875,-7.633587786259542,-2.435114503816794,-1.2442748091603053,923,0,0,15,11,11,10,592
1740329991.1245525,2.08845703125,-0.3113525390625,-9.37171142578125,-7.290076335877862,-2.198473282442748,-1.1984732824427482,923,0,0,15,11,11,10,592
1740329991.1295903,2.08606201171875,-0.37122802734375004,-9.328601074218751,-7.244274809160306,-1.9083969465648856,-1.3435114503816794,923,0,0,15,11,11,10,592
1740329991.1346276,2.1219873046875,-0.38080810546875005,-9.4124267578125,-7.282442748091603,-1.8473282442748091,-1.3282442748091603,923,0,0,15,11,11,10,592
1740329991.1396654,2.1243823242187503,-0.37122802734375004,-9.3836865234375,-6.709923664122138,-1.5877862595419847,-1.3129770992366412,923,0,0,15,11,11,10,592
1740329991.1447027,2.1028271484375,-0.34248779296875004,-9.62558349609375,-6.8320610687022905,-1.7328244274809161,-1.297709923664122,923,0,0,15,11,11,10,592
1740329991.14974,2.1124072265625,-0.45265869140625004,-9.40763671875,-6.786259541984733,-1.8396946564885497,-1.4122137404580153,923,0,0,15,11,11,10,592
1740329991.1547775,2.13875244140625,-0.42152343750000004,-9.374106445312501,-6.923664122137405,-1.5267175572519085,-1.3511450381679388,923,0,0,15,11,11,10,592
1740329991.1598182,2.16509765625,-0.38080810546875005,-9.38608154296875,-6.778625954198473,-1.7786259541984732,-1.3587786259541985,923,0,0,15,11,11,10,592
1740329991.164857,2.12917236328125,-0.3209326171875,-9.47230224609375,-6.8396946564885495,-2.0839694656488548,-1.450381679389313,923,0,0,15,11,11,10,592
1740329991.1698942,2.1507275390625002,-0.4358935546875,-9.44356201171875,-7.106870229007634,-2.0229007633587788,-1.5038167938931297,923,0,0,15,11,11,10,592
1740329991.1749318,2.12917236328125,-0.40954833984375,-9.37171142578125,-7.603053435114504,-2.1603053435114505,-1.3740458015267176,923,0,0,15,11,11,10,592
1740329991.1799695,2.28005859375,-0.36404296875000003,-9.44595703125,-8.221374045801527,-2.7786259541984735,-1.4045801526717556,923,0,0,15,11,11,10,592
1740329991.1850133,2.11959228515625,-0.3592529296875,-9.45314208984375,-9.114503816793894,-2.8702290076335877,-1.6106870229007633,923,0,0,15,11,11,11,592
1740329991.1900566,2.2752685546875,-0.40236328125000004,-9.580078125,-10.145038167938932,-2.6030534351145036,-1.6717557251908397,0,0,0,15,11,11,11,592
1740329991.1950965,2.1219873046875,-0.4071533203125,-9.359736328125,-10.625954198473282,-2.8625954198473282,-1.5725190839694656,0,0,0,15,11,11,11,592
1740329991.2001336,2.0740869140625002,-0.38320312500000003,-9.42919189453125,-11.198473282442748,-2.885496183206107,-1.916030534351145,0,0,0,15,11,11,11,592
1740329991.205171,2.05253173828125,-0.37601806640625,-9.469907226562501,-12.335877862595419,-3.5419847328244276,-2.0916030534351147,0,0,0,15,11,11,11,592
1740329991.2102084,2.1315673828125,-0.3592529296875,-9.381291503906251,-13.801526717557252,-3.114503816793893,-1.9236641221374047,0,0,0,15,11,11,11,592
1740329991.215246,2.18186279296875,-0.40954833984375,-9.6183984375,-16.106870229007633,-3.854961832061069,-2.068702290076336,0,0,0,15,11,11,11,592
1740329991.2202883,2.17228271484375,-0.316142578125,-9.40763671875,-15.633587786259541,-3.786259541984733,-2.4122137404580153,0,0,0,15,11,11,11,592
1740329991.2253294,2.11959228515625,-0.3448828125,-9.4124267578125,-16.091603053435115,-3.381679389312977,-3.7480916030534353,0,0,0,15,11,11,11,592
1740329991.230368,2.1794677734375,-0.37362304687500003,-9.4986474609375,-24.908396946564885,-5.572519083969466,-6.8396946564885495,0,0,0,15,11,11,11,592
1740329991.2354147,2.11001220703125,-0.3448828125,-9.747729492187501,-44.847328244274806,-6.061068702290076,-9.916030534351146,0,0,0,15,11,11,11,592
1740329991.240453,2.519560546875,-0.7256909179687501,-10.3225341796875,-77.46564885496183,-2.2061068702290076,-19.17557251908397,0,0,0,15,11,11,11,592
1740329991.2454917,1.85853515625,-0.45984375,-8.89270751953125,-71.83969465648855,-5.977099236641221,-13.183206106870228,0,0,0,15,11,11,11,592
1740329991.2505288,2.232158203125,-0.3305126953125,-9.55852294921875,-63.47328244274809,-1.9236641221374047,-10.198473282442748,0,0,0,15,11,11,11,592
1740329991.2555683,1.9687060546875002,-0.052690429687500005,-8.966953125,-42.37404580152672,-0.26717557251908397,-7.549618320610687,0,0,0,15,11,11,11,592
1740329991.260606,2.1698876953125,0.045505371093750004,-9.342971191406251,-23.435114503816795,-4.480916030534351,-3.015267175572519,0,0,0,15,11,11,11,592
1740329991.2656436,2.1076171875000003,-0.00239501953125,-9.64474365234375,-14.900763358778626,-2.7938931297709924,-2.618320610687023,0,0,0,15,11,11,11,592
1740329991.2706873,1.9902612304687501,0.02155517578125,-9.49146240234375,-6.465648854961832,-1.015267175572519,-1.8473282442748091,0,0,0,15,11,11,11,592
1740329991.2757273,2.0166064453125,-0.047900390625000004,-9.47230224609375,-8.717557251908397,-1.900763358778626,-1.6793893129770991,0,0,0,15,11,11,11,592
1740329991.2807693,2.07169189453125,-0.07903564453125,-9.374106445312501,-9.419847328244275,-1.5725190839694656,-1.6106870229007633,0,0,0,15,11,11,11,592
1740329991.2858133,2.117197265625,-0.09580078125000001,-9.44595703125,-8.816793893129772,-1.4045801526717556,-1.4122137404580153,0,0,0,15,11,11,10,587
1740329991.2908518,2.08845703125,-0.067060546875,-9.4986474609375,-8.358778625954198,-2.2748091603053435,-1.4580152671755726,0,0,0,15,11,11,10,587
1740329991.2958896,2.2561083984375,-0.09340576171875001,-9.477092285156251,-8.061068702290076,-2.1908396946564888,-1.2290076335877862,0,0,0,15,11,11,10,587
1740329991.3009264,2.11959228515625,0.12693603515625002,-9.61600341796875,-7.625954198473282,-2.435114503816794,-1.282442748091603,0,0,0,15,11,11,10,587
1740329991.3059633,2.1219873046875,-0.052690429687500005,-9.4124267578125,-7.427480916030534,-1.9465648854961832,-1.1374045801526718,0,0,0,15,11,11,10,587
1740329991.3110015,2.1124072265625,-0.10059082031250001,-9.3645263671875,-7.2748091603053435,-2.099236641221374,-1.282442748091603,0,0,0,15,11,11,10,587
1740329991.3160374,2.16270263671875,-0.07424560546875,-9.469907226562501,-7.534351145038168,-2.030534351145038,-1.2061068702290076,0,0,0,15,11,11,10,587
1740329991.3210738,2.16509765625,-0.09580078125000001,-9.40045166015625,-7.450381679389313,-2.5114503816793894,-1.3511450381679388,0,0,0,15,11,11,10,587
1740329991.3261135,2.15312255859375,-0.076640625,-9.378896484375,-9.770992366412214,-2.3282442748091605,-1.2442748091603053,0,0,0,15,11,11,10,587
1740329991.3311558,2.09564208984375,-0.1197509765625,-9.448352050781251,-9.763358778625955,-2.4198473282442747,-1.1908396946564885,0,0,0,15,11,11,10,587
1740329991.336195,1.9950512695312501,-0.04071533203125,-9.45314208984375,-7.709923664122138,-0.015267175572519083,-1.3740458015267176,0,0,0,15,11,11,10,587
1740329991.3412316,2.0740869140625002,-0.06945556640625,-9.43877197265625,-7.435114503816794,-1.7557251908396947,-1.251908396946565,0,0,0,15,11,11,10,587
1740329991.346286,2.1076171875000003,-0.0335302734375,-9.596843261718751,-7.290076335877862,-1.83206106870229,-1.16793893129771,0,0,0,15,11,11,10,587
1740329991.3513296,2.12917236328125,-0.0431103515625,-9.436376953125,-7.251908396946565,-1.6946564885496183,-1.1755725190839694,0,0,0,15,11,11,10,587
1740329991.3564188,2.08845703125,-0.023950195312500002,-9.474697265625,-7.442748091603053,-1.6946564885496183,-1.3053435114503817,0,0,0,15,11,11,10,587
1740329991.361466,2.0836669921875,-0.04071533203125,-9.44356201171875,-7.694656488549619,-1.6030534351145038,-1.3511450381679388,0,0,0,15,11,11,10,587
1740329991.3665042,2.12677734375,-0.0143701171875,-9.4220068359375,-7.465648854961832,-2.2748091603053435,-1.16793893129771,0,0,0,15,11,11,10,587
1740329991.371542,2.12917236328125,-0.055085449218750006,-9.4315869140625,-7.465648854961832,-2.2595419847328246,-1.2671755725190839,0,0,0,15,11,11,10,587
1740329991.376579,2.1459375,-0.04071533203125,-9.4220068359375,-7.656488549618321,-2.435114503816794,-1.3358778625954197,0,0,0,15,11,11,10,587
1740329991.3816156,1.99984130859375,-0.086220703125,-9.448352050781251,-7.450381679389313,-2.6259541984732824,-1.2748091603053435,0,0,0,15,11,11,10,587
1740329991.386653,2.1124072265625,-0.04071533203125,-9.3453662109375,-7.526717557251908,-2.4656488549618323,-1.4045801526717556,0,0,0,16,12,12,10,591
1740329991.3916917,2.05732177734375,-0.07424560546875,-9.433981933593751,-7.633587786259542,-2.404580152671756,-1.2671755725190839,0,0,0,16,12,12,10,591
1740329991.3967283,2.0980371093750003,-0.076640625,-9.65432373046875,-7.557251908396947,-2.3206106870229006,-1.1755725190839694,0,0,0,16,12,12,10,591
1740329991.401766,2.1411474609375003,-0.047900390625000004,-9.290280761718751,-7.358778625954199,-2.3435114503816794,-1.2900763358778626,0,0,0,16,12,12,10,591
1740329991.4069228,2.09564208984375,-0.05987548828125,-9.4124267578125,-7.106870229007634,-2.2977099236641223,-1.16793893129771,0,0,0,16,12,12,10,591
1740329991.412012,2.11959228515625,-0.0431103515625,-9.410031738281251,-7.099236641221374,-2.0381679389312977,-1.3282442748091603,0,0,0,16,12,12,10,591
1740329991.4170654,2.16270263671875,-0.09340576171875001,-9.41482177734375,-7.213740458015267,-2.0610687022900764,-1.2900763358778626,0,0,0,16,12,12,10,591
1740329991.4221096,2.1219873046875,-0.10298583984375001,-9.49146240234375,-7.198473282442748,-2.1068702290076335,-1.0458015267175573,0,0,0,16,12,12,10,591
1740329991.4271524,1.9974462890625,-0.06945556640625,-9.395661621093751,-7.221374045801527,-1.916030534351145,-1.3893129770992367,0,0,0,16,12,12,10,591
1740329991.4322245,2.1243823242187503,-0.023950195312500002,-9.388476562500001,-7.511450381679389,-2.0763358778625953,-1.4122137404580153,0,0,0,16,12,12,10,591
1740329991.4372642,2.06690185546875,-0.08382568359375,-9.402846679687501,-7.694656488549619,-2.3893129770992365,-1.4198473282442747,0,0,0,16,12,12,10,591
1740329991.4423137,2.14354248046875,-0.08382568359375,-9.426796875,-7.450381679389313,-2.7938931297709924,-1.251908396946565,0,0,0,16,12,12,10,591
1740329991.4473877,2.1339624023437502,0.14130615234375002,-9.5178076171875,-7.549618320610687,-2.9083969465648853,-1.4961832061068703,0,0,0,16,12,12,10,591
1740329991.4524605,2.16509765625,-0.045505371093750004,-9.3262060546875,-7.7251908396946565,-2.984732824427481,-1.4045801526717556,0,0,0,16,12,12,10,591
1740329991.457505,2.18186279296875,-0.07903564453125,-9.474697265625,-5.870229007633588,-2.519083969465649,-1.3969465648854962,0,0,0,16,12,12,10,591
1740329991.4625444,2.09564208984375,-0.09580078125000001,-9.33818115234375,-7.969465648854962,-2.5114503816793894,-1.4885496183206106,0,0,0,16,12,12,10,591
1740329991.4675844,2.11959228515625,-0.09101074218750001,-9.3166259765625,-5.893129770992366,-2.351145038167939,-1.2671755725190839,0,0,0,16,12,12,10,591
1740329991.4726224,2.11959228515625,-0.076640625,-9.398056640625,-7.778625954198473,-2.183206106870229,-1.282442748091603,0,0,0,16,12,12,10,591
1740329991.4776604,2.1028271484375,-0.03592529296875,-9.395661621093751,-7.740458015267175,-2.145038167938931,-1.1908396946564885,0,0,0,16,12,12,10,591
1740329991.4827046,2.03337158203125,-0.01916015625,-9.4651171875,-7.763358778625954,-2.183206106870229,-1.381679389312977,0,0,0,16,12,12,10,591
1740329991.487748,2.11959228515625,-0.086220703125,-9.42440185546875,-7.778625954198473,-2.282442748091603,-1.4198473282442747,0,0,0,16,11,12,10,590
1740329991.4927866,2.16509765625,-0.08382568359375,-9.45314208984375,-7.824427480916031,-2.16793893129771,-1.1984732824427482,0,0,0,16,11,12,10,590
1740329991.497824,2.174677734375,-0.07424560546875,-9.44356201171875,-7.709923664122138,-2.4885496183206106,-1.2748091603053435,0,0,0,16,11,12,10,590
1740329991.5028617,2.1339624023437502,-0.06466552734375,-9.5034375,-7.908396946564886,-2.3893129770992365,-1.465648854961832,0,0,0,16,11,12,10,590
1740329991.507922,2.07169189453125,-0.067060546875,-9.357341308593751,-7.938931297709924,-2.8931297709923665,-1.2748091603053435,0,0,0,16,11,12,10,590
1740329991.5129654,2.155517578125,-0.0047900390625,-9.45314208984375,-7.923664122137405,-2.618320610687023,-1.4809160305343512,0,0,0,16,11,12,10,590
1740329991.5180037,2.1124072265625,-0.0622705078125,-9.44356201171875,-8.122137404580153,-2.9770992366412212,-1.366412213740458,0,0,0,16,11,12,10,590
1740329991.523044,2.0908520507812502,-0.050295410156250005,-9.45314208984375,-8.244274809160306,-2.717557251908397,-1.3969465648854962,0,0,0,16,11,12,10,590
1740329991.5280821,2.117197265625,-0.0335302734375,-9.4124267578125,-7.961832061068702,-2.7557251908396947,-1.5877862595419847,0,0,0,16,11,12,10,590
1740329991.533168,2.09564208984375,-0.06945556640625,-9.441166992187501,-8.145038167938932,-2.7938931297709924,-1.4809160305343512,0,0,0,16,11,12,10,590
1740329991.5382295,2.11959228515625,-0.0718505859375,-9.426796875,-8.389312977099237,-2.5419847328244276,-1.2900763358778626,0,0,0,16,11,12,10,590
1740329991.543271,2.12917236328125,-0.03592529296875,-9.4890673828125,-8.19083969465649,-3.1068702290076335,-1.4580152671755726,0,0,0,16,11,12,10,590
1740329991.5483146,2.1028271484375,-0.03113525390625,-9.48188232421875,-8.17557251908397,-3.0916030534351147,-1.6793893129770991,0,0,0,16,11,12,10,590
1740329991.5533676,2.03337158203125,-0.03592529296875,-9.515412597656251,-8.404580152671755,-2.732824427480916,-1.4122137404580153,0,0,0,16,11,12,10,590
1740329991.5584269,2.0812719726562503,-0.00718505859375,-9.36931640625,-8.34351145038168,-2.8244274809160306,-1.5114503816793894,0,0,0,16,11,12,10,590
1740329991.5634673,2.0908520507812502,-0.045505371093750004,-9.36213134765625,-8.076335877862595,-2.8473282442748094,-1.2290076335877862,0,0,0,16,11,12,10,590
1740329991.5685053,2.29203369140625,-0.01676513671875,-9.52020263671875,-8.381679389312977,-2.946564885496183,-1.3129770992366412,0,0,0,16,11,12,10,590
1740329991.573544,2.2608984375000003,-0.13651611328125002,-9.4890673828125,-8.068702290076336,-2.9618320610687023,-1.4427480916030535,0,0,0,16,11,12,10,590
1740329991.5785816,2.11001220703125,-0.0143701171875,-9.6040283203125,-7.908396946564886,-2.9770992366412212,-1.4580152671755726,0,0,0,16,11,12,10,590
1740329991.5836198,2.05253173828125,-0.026345214843750003,-9.3836865234375,-8.053435114503817,-2.7404580152671754,-1.2748091603053435,0,0,0,16,11,12,10,590
1740329991.5886607,2.10522216796875,-0.045505371093750004,-9.29507080078125,-7.786259541984733,-2.564885496183206,-1.3206106870229009,921,0,0,17,13,13,11,594
1740329991.5937088,2.1579125976562503,0.0,-9.474697265625,-7.755725190839694,-2.6793893129770994,-1.3587786259541985,921,0,0,17,13,13,11,594
1740329991.5987473,2.16509765625,-0.0814306640625,-9.402846679687501,-8.145038167938932,-2.1603053435114505,-1.2900763358778626,921,0,0,17,13,13,11,594
1740329991.6037903,2.0908520507812502,-0.0622705078125,-9.402846679687501,-8.045801526717558,-2.66412213740458,-1.5190839694656488,921,0,0,17,13,13,11,594
1740329991.608831,2.10043212890625,-0.052690429687500005,-9.48427734375,-7.67175572519084,-2.2977099236641223,-1.1755725190839694,921,0,0,17,13,13,11,594
1740329991.6138694,2.11959228515625,-0.055085449218750006,-9.44356201171875,-7.923664122137405,-2.3740458015267176,-1.2748091603053435,921,0,0,17,13,13,11,594
1740329991.6189156,2.2656884765625,-0.023950195312500002,-9.469907226562501,-7.748091603053435,-2.6106870229007635,-1.3282442748091603,921,0,0,17,13,13,11,594
1740329991.6239598,2.12917236328125,-0.050295410156250005,-9.49625244140625,-7.709923664122138,-2.5114503816793894,-1.297709923664122,921,0,0,17,13,13,11,594
1740329991.6290011,2.0166064453125,-0.0814306640625,-9.4315869140625,-9.770992366412214,-2.312977099236641,-1.2748091603053435,921,0,0,17,13,13,11,594
1740329991.6340384,2.11001220703125,-0.0383203125,-9.48667236328125,-7.694656488549619,-2.1297709923664123,-1.2442748091603053,921,0,0,17,13,13,11,594
1740329991.6390772,2.11001220703125,-0.0814306640625,-9.26633056640625,-7.534351145038168,-2.1603053435114505,-1.3053435114503817,921,0,0,17,13,13,11,594
1740329991.6441145,2.11959228515625,-0.05748046875,-9.35255126953125,-5.900763358778626,-2.267175572519084,-1.3129770992366412,921,0,0,17,13,13,11,594
1740329991.6491518,2.11959228515625,-0.045505371093750004,-9.48188232421875,-7.809160305343512,-2.4198473282442747,-1.2748091603053435,921,0,0,17,13,13,11,594
1740329991.6541898,2.0932470703125,-0.10298583984375001,-9.37171142578125,-7.480916030534351,-2.5801526717557253,-1.2900763358778626,921,0,0,17,13,13,11,594
1740329991.6592278,2.10043212890625,-0.0622705078125,-9.462722167968751,-7.3816793893129775,-2.4427480916030535,-1.3358778625954197,921,0,0,17,13,13,11,594
1740329991.664281,2.11480224609375,-0.0622705078125,-9.40045166015625,-7.534351145038168,-2.6412213740458017,-1.3435114503816794,921,0,0,17,13,13,11,594
1740329991.6693258,2.10522216796875,-0.076640625,-9.49625244140625,-7.740458015267175,-2.7938931297709924,-1.5190839694656488,921,0,0,17,13,13,11,594
1740329991.6743686,2.1507275390625002,-0.10059082031250001,-9.48188232421875,-5.877862595419847,-2.66412213740458,-1.213740458015267,921,0,0,17,13,13,11,594
1740329991.6794074,2.13875244140625,-0.0335302734375,-9.2495654296875,-7.656488549618321,-2.6106870229007635,-1.282442748091603,921,0,0,17,13,13,11,594
1740329991.6844547,2.11480224609375,-0.026345214843750003,-9.41482177734375,-7.679389312977099,-2.33587786259542,-1.1297709923664123,921,0,0,17,13,13,11,594
1740329991.6897638,2.1243823242187503,-0.086220703125,-9.2112451171875,-7.396946564885496,-1.9770992366412214,-1.083969465648855,925,0,0,16,12,12,10,585
1740329991.6948073,2.174677734375,-0.0383203125,-9.3932666015625,-7.038167938931298,-1.7251908396946565,-1.4580152671755726,925,0,0,16,12,12,10,585
1740329991.6998408,1.9974462890625,-0.0622705078125,-9.4124267578125,-6.9465648854961835,-1.366412213740458,-1.1221374045801527,925,0,0,16,12,12,10,585
1740329991.7048788,2.10522216796875,-0.0047900390625,-9.30465087890625,-6.793893129770993,-1.099236641221374,-0.916030534351145,925,0,0,16,12,12,10,585
1740329991.709917,2.1698876953125,-0.067060546875,-9.378896484375,-6.786259541984733,-1.2366412213740459,-1.0763358778625953,925,0,0,16,12,12,10,585
1740329991.7149642,2.232158203125,-0.10777587890625001,-9.42919189453125,-6.816793893129771,-1.1221374045801527,-1.0763358778625953,925,0,0,16,12,12,10,585
1740329991.720006,2.10522216796875,-0.055085449218750006,-9.381291503906251,-6.633587786259542,-1.3053435114503817,-1.015267175572519,925,0,0,16,12,12,10,585
1740329991.725042,2.09564208984375,-0.08382568359375,-9.4794873046875,-6.8320610687022905,-1.6488549618320612,-1.1450381679389312,925,0,0,16,12,12,10,585
1740329991.7300775,2.1411474609375003,-0.076640625,-9.49146240234375,-7.2748091603053435,-2.099236641221374,-1.2900763358778626,925,0,0,16,12,12,10,585
1740329991.7351303,2.14354248046875,-0.08382568359375,-9.551337890625,-7.526717557251908,-2.3969465648854964,-1.3358778625954197,925,0,0,16,12,12,10,585
1740329991.7401643,2.09564208984375,0.01676513671875,-9.4890673828125,-7.6183206106870225,-2.7404580152671754,-1.450381679389313,925,0,0,16,12,12,10,585
1740329991.7451992,2.12677734375,-0.06945556640625,-9.48188232421875,-9.755725190839694,-3.0610687022900764,-1.4961832061068703,925,0,0,16,12,12,10,585
1740329991.750234,2.0261865234375,-0.050295410156250005,-9.45793212890625,-7.877862595419847,-3.5114503816793894,-1.4274809160305344,925,0,0,16,12,12,10,585
1740329991.755269,2.2537133789062502,-0.09580078125000001,-9.302255859375,-8.106870229007633,-3.351145038167939,-1.465648854961832,925,0,0,16,12,12,10,585
1740329991.760304,2.1698876953125,-0.0814306640625,-9.357341308593751,-8.16793893129771,-3.435114503816794,-1.6106870229007633,925,0,0,16,12,12,10,585
1740329991.7653546,1.99265625,0.1293310546875,-9.36213134765625,-8.32824427480916,-3.2748091603053435,-1.6412213740458015,925,0,0,16,12,12,10,585
1740329991.7703907,2.0908520507812502,-0.009580078125,-9.40524169921875,-8.267175572519085,-2.969465648854962,-1.5190839694656488,925,0,0,16,12,12,10,585
1740329991.775427,2.08606201171875,-0.047900390625000004,-9.2208251953125,-7.8320610687022905,-2.6106870229007635,-1.3435114503816794,925,0,0,16,12,12,10,585
1740329991.7804623,2.10522216796875,-0.02155517578125,-9.46751220703125,-7.648854961832061,-2.3053435114503817,-1.2442748091603053,925,0,0,16,12,12,10,585
1740329991.7854974,2.1339624023437502,-0.086220703125,-9.19927001953125,-7.3816793893129775,-2.16793893129771,-1.251908396946565,925,0,0,16,12,12,10,585
1740329991.7905366,2.0549267578125,-0.07903564453125,-9.40763671875,-7.3893129770992365,-1.8854961832061068,-1.083969465648855,926,0,0,15,11,11,9,585
1740329991.7955737,2.11959228515625,-0.04071533203125,-9.402846679687501,-7.122137404580153,-1.3435114503816794,-1.0534351145038168,926,0,0,15,11,11,9,585
1740329991.8006115,2.155517578125,-0.076640625,-9.46751220703125,-6.923664122137405,-1.2061068702290076,-1.1374045801526718,926,0,0,15,11,11,9,585
1740329991.8056607,2.2848486328125,-0.055085449218750006,-9.3645263671875,-6.66412213740458,-1.450381679389313,-1.1145038167938932,926,0,0,15,11,11,9,585
1740329991.8107018,2.117197265625,-0.03592529296875,-9.493857421875001,-7.0,-1.5954198473282444,-1.282442748091603,926,0,0,15,11,11,9,585
1740329991.8157387,2.069296875,-0.09340576171875001,-9.5417578125,-7.427480916030534,-1.9541984732824427,-1.4274809160305344,926,0,0,15,11,11,9,585
1740329991.8209736,2.0908520507812502,-0.10298583984375001,-9.49146240234375,-7.648854961832061,-2.068702290076336,-1.2366412213740459,926,0,0,15,11,11,9,585
1740329991.8260188,2.12917236328125,0.009580078125,-9.474697265625,-7.625954198473282,-2.572519083969466,-1.3053435114503817,926,0,0,15,11,11,9,585
1740329991.831048,2.11001220703125,-0.067060546875,-9.42919189453125,-7.534351145038168,-2.8625954198473282,-1.450381679389313,926,0,0,15,11,11,9,585
1740329991.841734,2.0812719726562503,-0.050295410156250005,-9.48427734375,-8.404580152671755,-3.7099236641221376,-1.618320610687023,926,0,0,15,11,11,9,585
1740329991.8467865,2.117197265625,-0.04071533203125,-9.455537109375001,-8.877862595419847,-3.6946564885496183,-1.633587786259542,926,0,0,15,11,11,9,585
1740329991.8518255,2.1507275390625002,-0.0431103515625,-9.36931640625,-8.755725190839694,-3.7251908396946565,-1.5038167938931297,926,0,0,15,11,11,9,585
1740329991.8568642,2.12917236328125,-0.0718505859375,-9.395661621093751,-8.610687022900763,-3.183206106870229,-1.5190839694656488,926,0,0,15,11,11,9,585
1740329991.8619015,2.11959228515625,-0.028740234375,-9.436376953125,-7.961832061068702,-2.9770992366412212,-1.549618320610687,926,0,0,15,11,11,9,585
1740329991.8669453,2.2369482421875,-0.03592529296875,-9.3166259765625,-7.9541984732824424,-2.450381679389313,-1.3435114503816794,926,0,0,15,11,11,9,585
1740329991.8720107,2.0812719726562503,-0.067060546875,-9.378896484375,-7.793893129770993,-2.3435114503816794,-1.3053435114503817,926,0,0,15,11,11,9,585
1740329991.877053,2.2177880859375003,-0.052690429687500005,-9.48188232421875,-7.526717557251908,-2.068702290076336,-1.2366412213740459,926,0,0,15,11,11,9,585
1740329991.8821754,2.08845703125,-0.09340576171875001,-9.433981933593751,-7.534351145038168,-1.9923664122137406,-1.3358778625954197,926,0,0,15,11,11,9,585
1740329991.887218,2.14833251953125,-0.0814306640625,-9.448352050781251,-7.282442748091603,-1.8244274809160306,-1.1908396946564885,926,0,0,13,10,10,9,585
1740329991.8922625,2.0836669921875,-0.05748046875,-9.4124267578125,-7.0534351145038165,-3.885496183206107,-1.0534351145038168,928,0,0,13,10,10,9,585
1740329991.8972957,2.0836669921875,0.00718505859375,-9.43877197265625,-7.030534351145038,-1.7938931297709924,-1.1603053435114503,928,0,0,13,10,10,9,585
1740329991.9023345,2.117197265625,-0.026345214843750003,-9.433981933593751,-7.137404580152672,-1.8854961832061068,-0.9847328244274809,928,0,0,13,10,10,9,585
1740329991.9073741,2.2608984375000003,-0.07424560546875,-9.3932666015625,-7.183206106870229,-2.2595419847328246,-1.183206106870229,928,0,0,13,10,10,9,585
1740329991.9124138,1.9950512695312501,-0.047900390625000004,-9.433981933593751,-7.305343511450381,-2.435114503816794,-1.2595419847328244,928,0,0,13,10,10,9,585
1740329991.917453,2.002236328125,-0.05987548828125,-9.402846679687501,-7.465648854961832,-2.66412213740458,-1.1450381679389312,928,0,0,13,10,10,9,585
1740329991.922482,2.1579125976562503,-0.10059082031250001,-9.51062255859375,-7.488549618320611,-2.9160305343511452,-1.3435114503816794,928,0,0,13,10,10,9,585
1740329991.9275198,2.1243823242187503,-0.0718505859375,-9.388476562500001,-7.801526717557252,-2.9083969465648853,-1.4885496183206106,928,0,0,13,10,10,9,585
1740329991.93275,2.11959228515625,-0.05987548828125,-9.433981933593751,-7.9541984732824424,-3.183206106870229,-1.465648854961832,928,0,0,13,10,10,9,585
1740329991.9378808,2.1315673828125,-0.10059082031250001,-9.388476562500001,-7.923664122137405,-2.763358778625954,-1.3282442748091603,928,0,0,13,10,10,9,585
1740329991.9429345,2.14354248046875,-0.0814306640625,-9.426796875,-7.893129770992366,-2.83206106870229,-1.4122137404580153,928,0,0,13,10,10,9,585
1740329991.947979,2.1938378906250002,-0.06945556640625,-9.4603271484375,-7.67175572519084,-2.435114503816794,-1.2366412213740459,928,0,0,13,10,10,9,585
1740329991.9530127,2.078876953125,-0.06466552734375,-9.32381103515625,-7.137404580152672,-2.4198473282442747,-1.3053435114503817,928,0,0,13,10,10,9,585
1740329991.958051,1.99984130859375,-0.11017089843750001,-9.39087158203125,-7.030534351145038,-2.2290076335877864,-1.1603053435114503,928,0,0,13,10,10,9,585
1740329991.9631097,2.2776635742187503,-0.07903564453125,-9.515412597656251,-7.351145038167939,-2.366412213740458,-1.2900763358778626,928,0,0,13,10,10,9,585
1740329991.968148,2.0836669921875,-0.055085449218750006,-9.4124267578125,-7.244274809160306,-1.8931297709923665,-1.1297709923664123,928,0,0,13,10,10,9,585
1740329991.9731863,2.05013671875,-0.026345214843750003,-9.40045166015625,-6.961832061068702,-1.83206106870229,-1.2213740458015268,928,0,0,13,10,10,9,585
1740329991.9782248,2.1986279296875,-0.052690429687500005,-9.41482177734375,-6.809160305343512,-1.717557251908397,-1.3206106870229009,928,0,0,13,10,10,9,585
1740329991.9832633,2.0453466796875,-0.08861572265625,-9.4315869140625,-6.763358778625954,-1.4274809160305344,-1.1450381679389312,928,0,0,13,10,10,9,585
1740329991.9883077,2.14833251953125,-0.052690429687500005,-9.42919189453125,-6.961832061068702,-1.2061068702290076,-1.2290076335877862,928,0,0,12,10,10,9,586
1740329991.993352,2.17228271484375,-0.03592529296875,-9.53936279296875,-6.961832061068702,-1.4809160305343512,-1.2595419847328244,930,0,0,12,10,10,9,586
1740329991.99839,2.0932470703125,-0.023950195312500002,-9.40524169921875,-7.030534351145038,-1.9694656488549618,-1.1297709923664123,930,0,0,12,10,10,9,586
1740329992.0034277,2.11001220703125,-0.0814306640625,-9.381291503906251,-7.137404580152672,-1.9083969465648856,-1.297709923664122,930,0,0,12,10,10,9,586
1740329992.0084648,2.1243823242187503,-0.06945556640625,-9.4603271484375,-7.343511450381679,-1.9541984732824427,-1.4351145038167938,930,0,0,12,10,10,9,586
1740329992.0135024,2.1507275390625002,-0.07424560546875,-9.4794873046875,-7.480916030534351,-2.2061068702290076,-1.2213740458015268,930,0,0,12,10,10,9,586
1740329992.0185463,2.14354248046875,-0.0335302734375,-9.40763671875,-7.557251908396947,-2.3893129770992365,-1.2366412213740459,930,0,0,12,10,10,9,586
1740329992.0235982,2.14354248046875,-0.047900390625000004,-9.35255126953125,-7.702290076335878,-2.3053435114503817,-1.4732824427480915,930,0,0,12,10,10,9,586
1740329992.0286293,2.1986279296875,-0.06945556640625,-9.48667236328125,-9.748091603053435,-2.5114503816793894,-1.297709923664122,930,0,0,12,10,10,9,586
1740329992.0336754,2.212998046875,-0.05987548828125,-9.3453662109375,-8.0,-2.5572519083969465,-1.297709923664122,930,0,0,12,10,10,9,586
1740329992.038713,2.14833251953125,-0.09340576171875001,-9.410031738281251,-7.9465648854961835,-2.5343511450381677,-1.4122137404580153,930,0,0,12,10,10,9,586
1740329992.0437512,2.12677734375,-0.05987548828125,-9.381291503906251,-7.969465648854962,-2.2595419847328246,-1.3282442748091603,930,0,0,12,10,10,9,586
1740329992.0487885,2.1219873046875,-0.00718505859375,-9.41482177734375,-7.748091603053435,-2.2977099236641223,-1.3587786259541985,930,0,0,12,10,10,9,586
1740329992.0538387,2.0381616210937503,-0.052690429687500005,-9.441166992187501,-7.702290076335878,-2.183206106870229,-1.083969465648855,930,0,0,12,10,10,9,586
1740329992.058881,2.0836669921875,-0.06945556640625,-9.513017578125,-7.694656488549619,-2.0839694656488548,-1.2900763358778626,930,0,0,12,10,10,9,586
1740329992.0639322,2.11480224609375,-0.026345214843750003,-9.441166992187501,-7.732824427480916,-2.3435114503816794,-1.251908396946565,930,0,0,12,10,10,9,586
1740329992.068979,2.1794677734375,-0.076640625,-9.35255126953125,-7.755725190839694,-2.5114503816793894,-1.1755725190839694,930,0,0,12,10,10,9,586
1740329992.074017,2.12677734375,-0.06466552734375,-9.436376953125,-7.549618320610687,-2.450381679389313,-1.4351145038167938,930,0,0,12,10,10,9,586
1740329992.0790558,2.136357421875,-0.0143701171875,-9.4220068359375,-7.786259541984733,-2.633587786259542,-1.4351145038167938,930,0,0,12,10,10,9,586
1740329992.0841014,2.117197265625,-0.09819580078125001,-9.39087158203125,-7.732824427480916,-2.854961832061069,-1.297709923664122,930,0,0,12,10,10,9,586
1740329992.089143,2.19623291015625,-0.05748046875,-9.515412597656251,-8.145038167938932,-2.8931297709923665,-1.3435114503816794,930,0,0,11,9,9,8,584
1740329992.0941799,2.13875244140625,-0.08861572265625,-9.402846679687501,-8.320610687022901,-2.9083969465648853,-1.4198473282442747,926,0,0,11,9,9,8,584
1740329992.099219,2.2608984375000003,-0.0143701171875,-9.395661621093751,-8.206106870229007,-3.2900763358778624,-1.450381679389313,926,0,0,11,9,9,8,584
1740329992.1042695,2.10043212890625,-0.050295410156250005,-9.417216796875001,-8.251908396946565,-3.33587786259542,-1.3893129770992367,926,0,0,11,9,9,8,584
1740329992.109308,1.99984130859375,-0.03592529296875,-9.50583251953125,-8.412213740458014,-3.015267175572519,-1.534351145038168,926,0,0,11,9,9,8,584
1740329992.1143453,2.27287353515625,-0.067060546875,-9.22801025390625,-8.305343511450381,-2.8625954198473282,-1.3511450381679388,926,0,0,11,9,9,8,584
1740329992.1193829,2.0836669921875,-0.028740234375,-9.44595703125,-8.290076335877863,-2.931297709923664,-1.4274809160305344,926,0,0,11,9,9,8,584
1740329992.12442,2.08606201171875,0.0,-9.436376953125,-8.412213740458014,-2.9236641221374047,-1.3740458015267176,926,0,0,11,9,9,8,584
1740329992.1294577,2.1507275390625002,-0.05987548828125,-9.501042480468751,-8.259541984732824,-3.0,-1.2671755725190839,926,0,0,11,9,9,8,584
1740329992.1344981,2.117197265625,-0.07424560546875,-9.560917968750001,-8.282442748091603,-2.969465648854962,-1.3358778625954197,926,0,0,11,9,9,8,584
1740329992.1395354,2.13875244140625,-0.03592529296875,-9.61121337890625,-8.282442748091603,-2.595419847328244,-1.3053435114503817,926,0,0,11,9,9,8,584
1740329992.144572,2.10043212890625,-0.06945556640625,-9.513017578125,-8.34351145038168,-2.854961832061069,-1.5038167938931297,926,0,0,11,9,9,8,584
1740329992.1496086,2.1315673828125,-0.06466552734375,-9.43877197265625,-7.877862595419847,-2.5801526717557253,-1.2290076335877862,926,0,0,11,9,9,8,584
1740329992.1546528,2.1603076171875,-0.124541015625,-9.4651171875,-7.580152671755725,-2.366412213740458,-1.2442748091603053,926,0,0,11,9,9,8,584
1740329992.1596909,1.99984130859375,-0.01676513671875,-9.41961181640625,-7.847328244274809,-2.282442748091603,-1.381679389312977,926,0,0,11,9,9,8,584
1740329992.164728,2.1028271484375,0.1484912109375,-9.426796875,-7.580152671755725,-2.366412213740458,-1.2748091603053435,926,0,0,11,9,9,8,584
1740329992.1697652,2.1315673828125,-0.086220703125,-9.49625244140625,-7.977099236641221,-2.2290076335877864,-1.4732824427480915,926,0,0,11,9,9,8,584
1740329992.174802,2.117197265625,0.026345214843750003,-9.402846679687501,-7.3893129770992365,-2.6030534351145036,-1.3435114503816794,926,0,0,11,9,9,8,584
1740329992.1798468,2.10043212890625,-0.01676513671875,-9.48667236328125,-7.351145038167939,-2.8396946564885495,-1.3511450381679388,926,0,0,11,9,9,8,584
1740329992.1848848,2.10522216796875,-0.04071533203125,-9.398056640625,-8.206106870229007,-2.7022900763358777,-1.3129770992366412,926,0,0,11,9,9,8,584
1740329992.189925,2.16270263671875,-0.09580078125000001,-9.515412597656251,-8.19083969465649,-2.7251908396946565,-1.5648854961832062,870,0,0,10,7,8,7,583
1740329992.1949646,2.1674926757812503,-0.045505371093750004,-9.469907226562501,-7.877862595419847,-2.7022900763358777,-1.4198473282442747,870,0,0,10,7,8,7,583
1740329992.2000022,2.26329345703125,-0.0383203125,-9.45793212890625,-7.793893129770993,-3.3282442748091605,-1.2366412213740459,870,0,0,10,7,8,7,583
1740329992.2050395,2.2177880859375003,-0.03113525390625,-9.6902490234375,-8.244274809160306,-3.1603053435114505,-1.2442748091603053,870,0,0,10,7,8,7,583
1740329992.2100768,2.0142114257812502,-0.07424560546875,-9.4651171875,-9.748091603053435,-3.5572519083969465,-1.4122137404580153,870,0,0,10,7,8,7,583
1740329992.2151155,2.2872436523437503,-0.055085449218750006,-9.49625244140625,-7.755725190839694,-3.2213740458015265,-1.3893129770992367,870,0,0,10,7,8,7,583
1740329992.2201743,2.17707275390625,-0.10059082031250001,-9.4507470703125,-8.114503816793894,-2.763358778625954,-1.4274809160305344,870,0,0,10,7,8,7,583
1740329992.2252092,2.11001220703125,-0.023950195312500002,-9.417216796875001,-7.465648854961832,-3.450381679389313,-1.4045801526717556,870,0,0,10,7,8,7,583
1740329992.230235,2.0932470703125,-0.03113525390625,-9.63755859375,-8.419847328244275,-3.267175572519084,-1.3358778625954197,870,0,0,10,7,8,7,583
1740329992.2352626,2.1315673828125,-0.03113525390625,-9.48188232421875,-8.793893129770993,-3.0076335877862594,-1.3206106870229009,870,0,0,10,7,8,7,583
1740329992.240301,2.19623291015625,-0.050295410156250005,-9.30465087890625,-7.320610687022901,-2.954198473282443,-1.213740458015267,870,0,0,10,7,8,7,583
1740329992.2453387,2.1219873046875,-0.011975097656250001,-9.477092285156251,-7.198473282442748,-2.6946564885496183,-1.2595419847328244,870,0,0,10,7,8,7,583
1740329992.250388,2.1076171875000003,-0.0383203125,-9.381291503906251,-7.603053435114504,-3.2595419847328246,-1.4427480916030535,870,0,0,10,7,8,7,583
1740329992.2554264,2.2273681640625003,-0.07424560546875,-9.42440185546875,-7.870229007633588,-3.549618320610687,-1.450381679389313,870,0,0,10,7,8,7,583
1740329992.2604644,2.10522216796875,-0.06466552734375,-9.3645263671875,-7.770992366412214,-2.7480916030534353,-1.2671755725190839,870,0,0,10,7,8,7,583
1740329992.2655017,2.2752685546875,-0.0047900390625,-9.3118359375,-7.129770992366412,-2.0916030534351147,-1.3129770992366412,870,0,0,10,7,8,7,583
1740329992.27054,2.0812719726562503,-0.04071533203125,-9.4651171875,-6.740458015267175,-2.122137404580153,-1.2290076335877862,870,0,0,10,7,8,7,583
1740329992.2755775,2.08606201171875,-0.01676513671875,-9.378896484375,-6.885496183206107,-1.5877862595419847,-0.9618320610687023,870,0,0,10,7,8,7,583
1740329992.280615,2.1028271484375,0.0047900390625,-9.3932666015625,-6.908396946564886,-1.5572519083969465,-1.0610687022900764,870,0,0,10,7,8,7,583
1740329992.285685,2.11959228515625,-0.0143701171875,-9.44595703125,-6.488549618320611,-1.7938931297709924,-1.0763358778625953,870,0,0,10,7,8,7,583
1740329992.2907274,2.1219873046875,-0.055085449218750006,-9.3836865234375,-6.0458015267175576,-0.08396946564885496,-1.2595419847328244,691,0,0,8,6,7,6,586
1740329992.295757,2.10043212890625,-0.045505371093750004,-9.4890673828125,-6.00763358778626,-2.2442748091603053,-1.0381679389312977,691,0,0,8,6,7,6,586
1740329992.3007948,2.22976318359375,-0.0622705078125,-9.48667236328125,-6.1603053435114505,-3.900763358778626,-1.015267175572519,691,0,0,8,6,7,6,586
1740329992.3058324,2.059716796875,-0.0335302734375,-9.436376953125,-6.3816793893129775,-1.8702290076335877,-1.1450381679389312,691,0,0,8,6,7,6,586
1740329992.310893,2.2465283203125,-0.028740234375,-9.328601074218751,-6.32824427480916,-1.7251908396946565,-1.251908396946565,691,0,0,8,6,7,6,586
1740329992.3159323,2.05732177734375,-0.055085449218750006,-9.469907226562501,-3.9923664122137406,-2.66412213740458,-1.213740458015267,691,0,0,8,6,7,6,586
1740329992.3209755,2.1219873046875,-0.076640625,-9.620793457031251,-7.8320610687022905,-1.916030534351145,-1.297709923664122,691,0,0,8,6,7,6,586
1740329992.3260128,2.04295166015625,-0.05987548828125,-9.5034375,-7.129770992366412,-2.877862595419847,-1.2061068702290076,691,0,0,8,6,7,6,586
1740329992.331051,2.136357421875,-0.05987548828125,-9.52499267578125,-8.106870229007633,-3.0839694656488548,-1.4732824427480915,691,0,0,8,6,7,6,586
1740329992.3360872,2.1579125976562503,-0.0383203125,-9.39087158203125,-8.038167938931299,-3.1068702290076335,-1.450381679389313,691,0,0,8,6,7,6,586
1740329992.341124,2.1076171875000003,-0.12693603515625002,-9.48188232421875,-8.282442748091603,-2.6946564885496183,-1.4580152671755726,691,0,0,8,6,7,6,586
1740329992.3461604,2.07648193359375,-0.00718505859375,-9.455537109375001,-8.694656488549619,-2.1068702290076335,-1.3053435114503817,691,0,0,8,6,7,6,586
1740329992.3511977,2.07648193359375,-0.03113525390625,-9.2399853515625,-7.572519083969466,-1.5725190839694656,-1.3206106870229009,691,0,0,8,6,7,6,586
1740329992.3562334,2.07648193359375,-0.0431103515625,-9.45314208984375,-6.854961832061068,-3.1068702290076335,-1.2061068702290076,691,0,0,8,6,7,6,586
1740329992.3612692,2.1698876953125,-0.14130615234375002,-9.64474365234375,-8.786259541984732,-2.687022900763359,-1.381679389312977,691,0,0,8,6,7,6,586
1740329992.3663146,2.11959228515625,-0.06945556640625,-9.441166992187501,-8.183206106870228,-3.16793893129771,-1.3358778625954197,691,0,0,8,6,7,6,586
1740329992.3713977,2.06690185546875,0.12214599609375,-9.36931640625,-8.80916030534351,-3.282442748091603,-1.465648854961832,691,0,0,8,6,7,6,586
1740329992.3764558,2.15312255859375,-0.01676513671875,-9.223220214843751,-8.786259541984732,-3.618320610687023,-1.3587786259541985,691,0,0,8,6,7,6,586
1740329992.3814938,2.0908520507812502,-0.0814306640625,-9.4220068359375,-8.877862595419847,-3.33587786259542,-1.5725190839694656,691,0,0,8,6,7,6,586
1740329992.3865314,2.10522216796875,-0.0143701171875,-9.41482177734375,-8.679389312977099,-5.847328244274809,-1.5648854961832062,691,0,0,8,6,7,6,586
1740329992.391788,2.02379150390625,-0.086220703125,-9.48427734375,-9.84732824427481,-3.427480916030534,-1.5419847328244274,0,0,0,6,6,5,5,583
1740329992.3968384,2.02379150390625,-0.01916015625,-9.3166259765625,-9.404580152671755,-4.106870229007634,-1.6641221374045803,0,0,0,6,6,5,5,583
1740329992.4018767,2.136357421875,-0.06945556640625,-9.230405273437501,-9.01526717557252,-3.801526717557252,-1.5877862595419847,0,0,0,6,6,5,5,583
1740329992.4069152,2.0932470703125,-0.10298583984375001,-9.436376953125,-9.312977099236642,-3.1374045801526718,-1.6564885496183206,0,0,0,6,6,5,5,583
1740329992.4119532,2.1219873046875,-0.055085449218750006,-9.4220068359375,-10.061068702290076,-3.2519083969465647,-2.045801526717557,0,0,0,6,6,5,5,583
1740329992.41699,2.11480224609375,0.009580078125,-9.5034375,-8.694656488549619,-2.2595419847328246,-1.618320610687023,0,0,0,6,6,5,5,583
1740329992.4220529,1.9902612304687501,-0.1197509765625,-8.835227050781251,-4.801526717557252,-1.9389312977099236,-1.0763358778625953,0,0,0,6,6,5,5,583
1740329992.4270887,2.2273681640625003,-0.0814306640625,-9.263935546875,-7.67175572519084,-1.4809160305343512,-1.0610687022900764,0,0,0,6,6,5,5,583
1740329992.4321158,2.20341796875,-0.00239501953125,-9.417216796875001,-6.984732824427481,-2.5343511450381677,-1.3053435114503817,0,0,0,6,6,5,5,583
1740329992.437179,2.2441333007812503,0.01676513671875,-9.754914550781251,-8.84732824427481,-1.5267175572519085,-1.3435114503816794,0,0,0,6,6,5,5,583
1740329992.4422355,2.11959228515625,-0.055085449218750006,-9.263935546875,-7.068702290076335,-2.3740458015267176,-1.251908396946565,0,0,0,6,6,5,5,583
1740329992.447274,2.117197265625,-0.0814306640625,-9.381291503906251,-6.770992366412214,-3.183206106870229,-1.366412213740458,0,0,0,6,6,5,5,583
1740329992.4523115,2.2848486328125,-0.055085449218750006,-9.43877197265625,-8.34351145038168,-1.5114503816793894,-1.1908396946564885,0,0,0,6,6,5,5,583
1740329992.4573495,2.10043212890625,-0.03592529296875,-9.10825927734375,-7.229007633587786,-2.122137404580153,-1.0916030534351144,0,0,0,6,6,5,5,583
1740329992.4623883,2.07169189453125,-0.03113525390625,-9.398056640625,-7.282442748091603,-1.251908396946565,-1.099236641221374,0,0,0,6,6,5,5,583
1740329992.4674277,2.14354248046875,0.0,-9.493857421875001,-5.893129770992366,-0.06870229007633588,-1.1297709923664123,0,0,0,6,6,5,5,583
1740329992.4724898,2.11001220703125,-0.00239501953125,-9.3453662109375,-7.66412213740458,-2.2290076335877864,-1.282442748091603,0,0,0,6,6,5,5,583
1740329992.4775279,2.12677734375,0.07424560546875,-9.48188232421875,-7.694656488549619,-1.8854961832061068,-1.1755725190839694,0,0,0,6,6,5,5,583
1740329992.482789,2.1076171875000003,-0.04071533203125,-9.402846679687501,-7.885496183206107,-2.2213740458015265,-1.282442748091603,0,0,0,6,6,5,5,583
1740329992.4878335,2.0980371093750003,0.10059082031250001,-9.48667236328125,-8.114503816793894,-2.427480916030534,-1.4122137404580153,0,0,0,4,3,4,3,582
1740329992.492861,1.99265625,-0.07903564453125,-9.4507470703125,-8.183206106870228,-2.6259541984732824,-1.4885496183206106,0,0,0,4,3,4,3,582
1740329992.4978971,2.18665283203125,-0.14609619140625002,-9.469907226562501,-8.076335877862595,-3.0610687022900764,-1.4961832061068703,0,0,0,4,3,4,3,582
1740329992.5029342,2.1339624023437502,0.00718505859375,-9.38608154296875,-7.824427480916031,-3.0610687022900764,-1.5648854961832062,0,0,0,4,3,4,3,582
1740329992.5079713,2.13875244140625,0.02155517578125,-9.42440185546875,-7.694656488549619,-3.0,-1.3053435114503817,0,0,0,4,3,4,3,582
1740329992.5130086,2.0261865234375,-0.04071533203125,-9.37650146484375,-7.267175572519084,-2.549618320610687,-1.1908396946564885,0,0,0,4,3,4,3,582
1740329992.5180464,2.11480224609375,-0.09580078125000001,-9.515412597656251,-6.6106870229007635,-1.9923664122137406,-1.0381679389312977,0,0,0,4,3,4,3,582
1740329992.523085,2.117197265625,-0.011975097656250001,-9.44356201171875,-5.977099236641221,-1.5190839694656488,-0.9618320610687023,0,0,0,4,3,4,3,582
1740329992.5281217,2.13875244140625,-0.04071533203125,-9.49625244140625,-5.8396946564885495,-1.2061068702290076,-0.8854961832061069,0,0,0,4,3,4,3,582
1740329992.5331585,2.13875244140625,-0.05748046875,-9.36213134765625,-7.778625954198473,-0.9541984732824428,-0.7862595419847328,0,0,0,4,3,4,3,582
1740329992.5381985,2.07169189453125,-0.0335302734375,-9.402846679687501,-5.748091603053435,-0.7404580152671756,-0.7786259541984732,0,0,0,4,3,4,3,582
1740329992.543237,2.0166064453125,-0.050295410156250005,-9.40763671875,-6.00763358778626,-0.816793893129771,-0.8931297709923665,0,0,0,4,3,4,3,582
1740329992.5482736,2.10522216796875,-0.03113525390625,-9.532177734375,-5.572519083969466,-0.07633587786259542,-0.8396946564885496,0,0,0,4,3,4,3,582
1740329992.5533342,2.117197265625,-0.026345214843750003,-9.374106445312501,-3.946564885496183,0.32061068702290074,-1.1221374045801527,0,0,0,4,3,4,3,582
1740329992.5583746,2.11959228515625,-0.10059082031250001,-9.13699951171875,-6.00763358778626,1.16793893129771,-0.7175572519083969,0,0,0,4,3,4,3,582
1740329992.5634127,2.1579125976562503,-0.011975097656250001,-9.441166992187501,-5.870229007633588,-0.9312977099236641,-1.0610687022900764,0,0,0,4,3,4,3,582
1740329992.56845,2.1411474609375003,0.00718505859375,-9.4986474609375,-9.32824427480916,0.26717557251908397,-1.2595419847328244,0,0,0,4,3,4,3,582
1740329992.573487,2.0836669921875,-0.01676513671875,-9.501042480468751,-7.8396946564885495,2.4580152671755724,-0.9770992366412213,0,0,0,4,3,4,3,582
1740329992.5785246,2.0213964843750003,-0.0622705078125,-9.44356201171875,-4.312977099236641,2.114503816793893,-0.7633587786259542,0,0,0,4,3,4,3,582
1740329992.583576,2.29203369140625,-0.09101074218750001,-9.508227539062501,-3.2900763358778624,0.8778625954198473,-0.8396946564885496,0,0,0,4,3,4,3,582
1740329992.5886145,2.2082080078125,-0.124541015625,-9.261540527343751,-4.786259541984733,-1.1450381679389312,-1.4274809160305344,0,0,0,3,3,4,4,588
1740329992.5936525,2.14833251953125,-0.07903564453125,-9.120234375,-6.076335877862595,-2.045801526717557,-0.9312977099236641,0,0,0,3,3,4,4,588
1740329992.598689,2.155517578125,0.052690429687500005,-9.3645263671875,-6.603053435114504,-2.4427480916030535,-0.9236641221374046,0,0,0,3,3,4,4,588
1740329992.603728,2.1339624023437502,0.11017089843750001,-9.740544433593751,-6.038167938931298,-1.5801526717557253,-0.9389312977099237,0,0,0,3,3,4,4,588
1740329992.6087656,2.174677734375,0.0143701171875,-9.58726318359375,-6.3893129770992365,-2.885496183206107,-0.7175572519083969,0,0,0,3,3,4,4,588
1740329992.6138027,2.18186279296875,-0.026345214843750003,-9.321416015625001,-8.213740458015268,-3.6564885496183206,-1.4198473282442747,0,0,0,3,3,4,4,588
1740329992.6188393,2.1124072265625,-0.067060546875,-9.26633056640625,-8.038167938931299,-3.351145038167939,-1.5419847328244274,0,0,0,3,3,4,4,588
1740329992.624044,2.0980371093750003,-0.0622705078125,-9.402846679687501,-8.916030534351146,-4.679389312977099,-1.7328244274809161,0,0,0,3,3,4,4,588
1740329992.6290967,2.11001220703125,0.1149609375,-9.6615087890625,-9.702290076335878,-4.1679389312977095,-1.618320610687023,0,0,0,3,3,4,4,588
1740329992.6341317,2.1124072265625,-0.03113525390625,-9.378896484375,-9.86259541984733,-3.7786259541984735,-1.297709923664122,0,0,0,3,3,4,4,588
1740329992.6391716,2.15312255859375,-0.0383203125,-9.223220214843751,-9.83206106870229,-2.9923664122137406,-1.4122137404580153,0,0,0,3,3,4,4,588
1740329992.6442087,2.1579125976562503,-0.13651611328125002,-9.29267578125,-8.595419847328245,-3.3206106870229006,-1.5419847328244274,0,0,0,3,3,4,4,588
1740329992.6492455,2.10043212890625,-0.028740234375,-9.42919189453125,-7.908396946564886,-2.099236641221374,-1.5267175572519085,0,0,0,3,3,4,4,588
1740329992.6542826,2.14354248046875,-0.0383203125,-9.3262060546875,-8.068702290076336,-2.50381679389313,-1.2366412213740459,0,0,0,3,3,4,4,588
1740329992.6593194,2.117197265625,-0.026345214843750003,-9.716594238281251,-7.526717557251908,-2.1526717557251906,-1.0687022900763359,0,0,0,3,3,4,4,588
1740329992.6643553,2.10522216796875,-0.028740234375,-9.426796875,-7.137404580152672,-2.5877862595419847,-1.183206106870229,0,0,0,3,3,4,4,588
1740329992.6693928,2.2465283203125,-0.0335302734375,-9.33099609375,-6.900763358778626,-2.3282442748091605,-1.2595419847328244,0,0,0,3,3,4,4,588
1740329992.6744294,2.2465283203125,-0.12214599609375,-9.23280029296875,-6.885496183206107,-2.0763358778625953,-1.0534351145038168,0,0,0,3,3,4,4,588
1740329992.6794662,2.2872436523437503,-0.08382568359375,-9.44356201171875,-7.068702290076335,-2.282442748091603,-1.1068702290076335,0,0,0,3,3,4,4,588
1740329992.6845186,2.10522216796875,-0.06945556640625,-9.43877197265625,-6.8320610687022905,-1.8854961832061068,-1.0763358778625953,0,0,0,3,3,4,4,588
1740329992.690079,2.13875244140625,0.10777587890625001,-9.410031738281251,-6.374045801526718,-1.9923664122137406,-1.0610687022900764,0,0,0,2,3,3,3,583
1740329992.695396,2.2752685546875,-0.052690429687500005,-9.5178076171875,-7.374045801526718,-1.8091603053435115,-1.0076335877862594,0,0,0,2,3,3,3,583
1740329992.7006528,2.11959228515625,-0.052690429687500005,-9.321416015625001,-6.8320610687022905,-2.0229007633587788,-0.9847328244274809,0,0,0,2,3,3,3,583
1740329992.7059438,2.1315673828125,-0.05987548828125,-9.40524169921875,-6.66412213740458,-1.83206106870229,-1.0458015267175573,0,0,0,2,3,3,3,583
1740329992.713079,2.136357421875,-0.11017089843750001,-9.45793212890625,-7.145038167938932,-2.2442748091603053,-1.3740458015267176,0,0,0,2,3,3,3,583
1740329992.718201,2.12917236328125,-0.08382568359375,-9.469907226562501,-7.572519083969466,-2.5572519083969465,-1.2061068702290076,0,0,0,2,3,3,3,583
1740329992.723297,2.1579125976562503,-0.0335302734375,-9.4315869140625,-7.465648854961832,-2.450381679389313,-1.3053435114503817,0,0,0,2,3,3,3,583
1740329992.728392,2.08845703125,-0.10777587890625001,-9.26633056640625,-7.885496183206107,-2.5877862595419847,-1.4274809160305344,0,0,0,2,3,3,3,583
1740329992.7337825,2.11480224609375,-0.0814306640625,-9.3932666015625,-7.908396946564886,-2.717557251908397,-1.3435114503816794,0,0,0,2,3,3,3,583
1740329992.73905,2.0046313476562503,-0.0383203125,-9.5034375,-7.938931297709924,-2.6106870229007635,-1.2671755725190839,0,0,0,2,3,3,3,583
1740329992.744906,2.17228271484375,-0.0431103515625,-9.410031738281251,-7.9541984732824424,-2.2977099236641223,-1.2290076335877862,0,0,0,2,3,3,3,583
1740329992.7504985,2.1219873046875,-0.08861572265625,-9.4794873046875,-7.916030534351145,-2.2595419847328246,-1.16793893129771,0,0,0,2,3,3,3,583
1740329992.7568283,1.9950512695312501,-0.0335302734375,-9.40763671875,-5.893129770992366,-2.1526717557251906,-1.3587786259541985,0,0,0,2,3,3,3,583
1740329992.7625356,2.1579125976562503,0.0047900390625,-9.51062255859375,-7.969465648854962,-1.9618320610687023,-1.2290076335877862,0,0,0,2,3,3,3,583
1740329992.7680063,2.28005859375,-0.10059082031250001,-9.4603271484375,-7.4961832061068705,-1.2748091603053435,-1.2748091603053435,0,0,0,2,3,3,3,583
1740329992.773061,2.1507275390625002,-0.10059082031250001,-9.37171142578125,-7.221374045801527,-1.4351145038167938,-1.1908396946564885,0,0,0,2,3,3,3,583
1740329992.7780876,2.2752685546875,-0.045505371093750004,-9.36213134765625,-7.290076335877862,-1.5572519083969465,-1.083969465648855,0,0,0,2,3,3,3,583
1740329992.7831132,1.9974462890625,-0.00718505859375,-9.48667236328125,-7.229007633587786,-1.717557251908397,-1.183206106870229,0,0,0,2,3,3,3,583
1740329992.7881396,2.0836669921875,0.11017089843750001,-9.45314208984375,-7.374045801526718,-2.1068702290076335,-1.2442748091603053,0,0,0,2,3,3,3,583
1740329992.7931707,2.16270263671875,-0.0143701171875,-9.4603271484375,-7.557251908396947,-2.1374045801526718,-0.9923664122137404,0,0,0,3,4,4,3,587
1740329992.798196,2.0046313476562503,-0.08861572265625,-9.3549462890625,-7.091603053435114,-1.8473282442748091,-1.083969465648855,0,0,0,3,4,4,3,587
1740329992.803256,2.1219873046875,-0.04071533203125,-9.49146240234375,-7.198473282442748,-3.8396946564885495,-1.1374045801526718,0,0,0,3,4,4,3,587
1740329992.8083081,2.1315673828125,-0.076640625,-9.39087158203125,-7.190839694656488,-3.900763358778626,-1.3358778625954197,0,0,0,3,4,4,3,587
1740329992.8133566,2.2106030273437502,-0.00239501953125,-9.388476562500001,-7.519083969465649,-1.900763358778626,-1.297709923664122,0,0,0,3,4,4,3,587
1740329992.8183937,2.1315673828125,-0.028740234375,-9.43877197265625,-7.694656488549619,-1.8778625954198473,-1.3358778625954197,0,0,0,3,4,4,3,587
1740329992.8234444,2.12917236328125,-0.05987548828125,-9.469907226562501,-7.702290076335878,-2.2977099236641223,-1.3053435114503817,0,0,0,3,4,4,3,587
1740329992.82849,2.13875244140625,-0.09101074218750001,-9.513017578125,-7.625954198473282,-2.3969465648854964,-1.2290076335877862,0,0,0,3,4,4,3,587
1740329992.833527,2.19144287109375,-0.11017089843750001,-9.41961181640625,-7.450381679389313,-2.2748091603053435,-1.2671755725190839,0,0,0,3,4,4,3,587
1740329992.8385634,1.99984130859375,-0.11017089843750001,-9.41961181640625,-7.404580152671755,-2.5267175572519083,-1.2061068702290076,0,0,0,3,4,4,3,587
1740329992.8435998,2.1339624023437502,-0.067060546875,-9.40045166015625,-7.641221374045801,-2.5419847328244276,-1.3358778625954197,0,0,0,3,4,4,3,587
1740329992.848638,2.1124072265625,-0.11017089843750001,-9.47230224609375,-7.732824427480916,-2.8625954198473282,-1.5572519083969465,0,0,0,3,4,4,3,587
1740329992.853674,2.1459375,-0.15088623046875002,-9.436376953125,-5.870229007633588,-2.83206106870229,-1.465648854961832,0,0,0,3,4,4,3,587
1740329992.8587096,2.1339624023437502,-0.05748046875,-9.3932666015625,-7.885496183206107,-2.8244274809160306,-1.4427480916030535,0,0,0,3,4,4,3,587
1740329992.8637598,2.12917236328125,-0.0622705078125,-9.417216796875001,-7.732824427480916,-2.9770992366412212,-1.4274809160305344,0,0,0,3,4,4,3,587
1740329992.8688045,2.136357421875,-0.0622705078125,-9.35255126953125,-7.66412213740458,-2.8473282442748094,-1.381679389312977,0,0,0,3,4,4,3,587
1740329992.8738434,2.1219873046875,-0.08861572265625,-9.33818115234375,-7.67175572519084,-2.7022900763358777,-1.4732824427480915,0,0,0,3,4,4,3,587
1740329992.8788953,2.11480224609375,-0.13412109375,-9.455537109375001,-5.923664122137405,-2.450381679389313,-1.3969465648854962,0,0,0,3,4,4,3,587
1740329992.8839393,2.15312255859375,-0.1149609375,-9.40763671875,-7.786259541984733,-2.3053435114503817,-1.4198473282442747,0,0,0,3,4,4,3,587
1740329992.8889866,1.9950512695312501,-0.0383203125,-9.4986474609375,-7.6106870229007635,-2.2213740458015265,-1.4122137404580153,0,0,0,3,3,3,4,589
1740329992.8940268,2.13875244140625,-0.06945556640625,-9.441166992187501,-7.427480916030534,-2.099236641221374,-1.2366412213740459,0,0,0,3,3,3,4,589
1740329992.899066,2.02858154296875,-0.14609619140625002,-9.4124267578125,-6.854961832061068,-2.381679389312977,-1.099236641221374,0,0,0,3,3,3,4,589
1740329992.904105,2.1219873046875,-0.050295410156250005,-9.474697265625,-6.977099236641221,-0.11450381679389313,-1.1145038167938932,0,0,0,3,3,3,4,589
1740329992.909144,2.16270263671875,-0.028740234375,-9.36213134765625,-7.068702290076335,-2.053435114503817,-1.213740458015267,0,0,0,3,3,3,4,589
1740329992.9141817,2.1028271484375,0.00239501953125,-9.402846679687501,-6.938931297709924,-1.6030534351145038,-1.1755725190839694,0,0,0,3,3,3,4,589
1740329992.9192212,2.174677734375,-0.07424560546875,-9.3932666015625,-6.847328244274809,-0.007633587786259542,-1.2213740458015268,0,0,0,3,3,3,4,589
1740329992.9242594,2.1315673828125,-0.0622705078125,-9.53936279296875,-6.893129770992366,-1.748091603053435,-1.1984732824427482,0,0,0,3,3,3,4,589
1740329992.9292982,2.1507275390625002,-0.050295410156250005,-9.42440185546875,-7.022900763358779,-1.9083969465648856,-1.1984732824427482,0,0,0,3,3,3,4,589
1740329992.9343371,2.1411474609375003,-0.07424560546875,-9.4603271484375,-7.0534351145038165,-1.7557251908396947,-1.3282442748091603,0,0,0,3,3,3,4,589
1740329992.939394,2.16270263671875,-0.06945556640625,-9.417216796875001,-7.3893129770992365,-2.0229007633587788,-1.2366412213740459,0,0,0,3,3,3,4,589
1740329992.9444296,1.9974462890625,-0.050295410156250005,-9.53936279296875,-7.564885496183206,-2.068702290076336,-1.251908396946565,0,0,0,3,3,3,4,589
1740329992.9494636,2.1794677734375,-0.076640625,-9.4220068359375,-7.763358778625954,-2.3053435114503817,-1.282442748091603,0,0,0,3,3,3,4,589
1740329992.9545007,2.174677734375,-0.047900390625000004,-9.36213134765625,-5.885496183206107,-2.366412213740458,-1.3435114503816794,0,0,0,3,3,3,4,589
1740329992.9596062,2.1507275390625002,-0.045505371093750004,-9.237590332031251,-7.786259541984733,-2.2748091603053435,-1.3129770992366412,0,0,0,3,3,3,4,589
1740329992.9646482,2.1315673828125,-0.07424560546875,-9.398056640625,-7.877862595419847,-2.5267175572519083,-1.4198473282442747,0,0,0,3,3,3,4,589
1740329992.9696867,2.13875244140625,-0.124541015625,-9.410031738281251,-9.717557251908397,-2.6030534351145036,-1.4122137404580153,0,0,0,3,3,3,4,589
1740329992.9747617,2.174677734375,-0.050295410156250005,-9.42440185546875,-7.877862595419847,-2.5572519083969465,-1.5038167938931297,0,0,0,3,3,3,4,589
1740329992.9798317,2.289638671875,-0.0431103515625,-9.455537109375001,-9.740458015267176,-2.7099236641221376,-1.366412213740458,0,0,0,3,3,3,4,589
1740329992.9848723,2.2273681640625003,-0.15088623046875002,-9.34776123046875,-7.679389312977099,-2.33587786259542,-1.4427480916030535,0,0,0,3,3,3,4,589
1740329992.9899175,2.1938378906250002,-0.023950195312500002,-9.4507470703125,-7.755725190839694,-2.2900763358778624,-1.1984732824427482,0,0,0,3,3,3,4,590
1740329992.9949677,2.002236328125,-0.10059082031250001,-9.49625244140625,-7.3816793893129775,-1.984732824427481,-1.1221374045801527,0,0,0,3,3,3,4,590
1740329993.0000072,2.15312255859375,-0.01676513671875,-9.33339111328125,-7.1679389312977095,-1.8473282442748091,-1.2290076335877862,0,0,0,3,3,3,4,590
1740329993.0050468,2.1507275390625002,-0.026345214843750003,-9.455537109375001,-6.732824427480916,-1.8473282442748091,-1.2061068702290076,0,0,0,3,3,3,4,590
1740329993.0100856,2.1076171875000003,-0.02155517578125,-9.38608154296875,-6.748091603053435,-1.4580152671755726,-0.9923664122137404,0,0,0,3,3,3,4,590
1740329993.015125,2.0812719726562503,-0.03113525390625,-9.27112060546875,-6.541984732824427,-1.16793893129771,-1.2366412213740459,0,0,0,3,3,3,4,590
1740329993.0201693,2.1507275390625002,-0.04071533203125,-9.48667236328125,-6.656488549618321,-1.618320610687023,-1.1297709923664123,0,0,0,3,3,3,4,590
1740329993.0252118,1.99984130859375,-0.052690429687500005,-9.42440185546875,-6.702290076335878,-1.4122137404580153,-1.2595419847328244,0,0,0,3,3,3,4,590
1740329993.0302505,2.16509765625,-0.0143701171875,-9.455537109375001,-6.9541984732824424,-1.3587786259541985,-1.2213740458015268,0,0,0,3,3,3,4,590
1740329993.0352893,2.11001220703125,-0.07424560546875,-9.41482177734375,-6.9541984732824424,-1.5877862595419847,-1.1755725190839694,0,0,0,3,3,3,4,590
1740329993.0403392,2.16509765625,-0.09580078125000001,-9.43877197265625,-7.0534351145038165,-1.7709923664122138,-1.1603053435114503,0,0,0,3,3,3,4,590
1740329993.0453777,2.11001220703125,-0.04071533203125,-9.4220068359375,-7.122137404580153,-1.6870229007633588,-1.1374045801526718,0,0,0,3,3,3,4,590
1740329993.0504158,2.12917236328125,-0.09340576171875001,-9.378896484375,-7.396946564885496,-1.8396946564885497,-1.1755725190839694,0,0,0,3,3,3,4,590
1740329993.0554545,2.17228271484375,-0.026345214843750003,-9.46751220703125,-7.679389312977099,-2.068702290076336,-1.2595419847328244,0,0,0,3,3,3,4,590
1740329993.0604925,2.1794677734375,-0.0431103515625,-9.208850097656251,-7.694656488549619,-2.0,-1.0534351145038168,0,0,0,3,3,3,4,590
1740329993.0655305,2.2273681640625003,-0.052690429687500005,-9.47230224609375,-7.687022900763359,-1.900763358778626,-1.3282442748091603,0,0,0,3,3,3,4,590
1740329993.0705695,2.22976318359375,-0.10298583984375001,-9.36213134765625,-7.526717557251908,-1.4885496183206106,-1.2671755725190839,0,0,0,3,3,3,4,590
1740329993.0756073,2.2704785156250002,-0.0814306640625,-9.314230957031251,-7.152671755725191,-1.3053435114503817,-1.2366412213740459,0,0,0,3,3,3,4,590
1740329993.0806446,2.14833251953125,-0.10538085937500001,-9.4507470703125,-7.061068702290076,-1.1526717557251909,-1.1984732824427482,0,0,0,3,3,3,4,590
1740329993.0856886,2.2848486328125,-0.08382568359375,-9.41482177734375,-6.450381679389313,-0.5801526717557252,-0.8549618320610687,0,0,0,3,3,3,4,590
1740329993.0907354,2.14354248046875,-0.05987548828125,-9.4651171875,-5.6106870229007635,-0.5343511450381679,-1.0687022900763359,0,0,0,3,3,3,4,591
1740329993.0957756,2.212998046875,-0.076640625,-9.410031738281251,-6.351145038167939,-0.5801526717557252,-1.1526717557251909,0,0,0,3,3,3,4,591
1740329993.1008132,2.1579125976562503,-0.05748046875,-9.441166992187501,-6.106870229007634,0.9083969465648855,-1.0305343511450382,0,0,0,3,3,3,4,591
1740329993.105851,2.1698876953125,-0.0431103515625,-9.4507470703125,-6.343511450381679,1.7938931297709924,-1.1984732824427482,0,0,0,3,3,3,4,591
1740329993.110889,2.11480224609375,-0.06945556640625,-9.381291503906251,-6.4961832061068705,0.183206106870229,-1.1145038167938932,0,0,0,3,3,3,4,591
1740329993.1159267,2.19623291015625,-0.0431103515625,-9.44595703125,-6.541984732824427,-0.0916030534351145,-1.1526717557251909,0,0,0,3,3,3,4,591
1740329993.1209917,2.155517578125,-0.052690429687500005,-9.560917968750001,-6.633587786259542,-0.6183206106870229,-1.2900763358778626,0,0,0,3,3,3,4,591
1740329993.126031,2.16270263671875,-0.0622705078125,-9.50583251953125,-6.687022900763359,-1.015267175572519,-1.2061068702290076,0,0,0,3,3,3,4,591
1740329993.1310692,2.2010229492187503,-0.13412109375,-9.493857421875001,-7.129770992366412,-0.8549618320610687,-0.9694656488549618,0,0,0,3,3,3,4,591
1740329993.1361063,2.1938378906250002,-0.10538085937500001,-9.297465820312501,-6.99236641221374,-0.7404580152671756,-1.2671755725190839,0,0,0,3,3,3,4,591
1740329993.1411438,2.22497314453125,-0.06945556640625,-9.35255126953125,-6.541984732824427,-1.5190839694656488,-1.1145038167938932,0,0,0,3,3,3,4,591
